
 ------------------------------------------------------------
     normal          Raman Scattering Plot
 ------------------------------------------------------------
 Excitation wavelength  514.50 nm
 Convolution lineshape is lorentzian  
 FWHM   20.00  1/cm
 ------------------------------------------------------------
 ------------------------------------------------------------
 # of frequencies :     3
 ------------------------------------------------------------
 #  freq [ 1/cm]  S [Ang**4/amu]
 ------------------------------------------------------------
   1  1584.29        1.6775
   2  3674.59      114.8807
   3  3786.71       28.8922
 ------------------------------------------------------------
  1526.62    0.5931E-04
  1528.94    0.6415E-04
  1531.27    0.6963E-04
  1533.59    0.7583E-04
  1535.92    0.8290E-04
  1538.24    0.9100E-04
  1540.56    0.1003E-03
  1542.89    0.1112E-03
  1545.21    0.1239E-03
  1547.54    0.1388E-03
  1549.86    0.1566E-03
  1552.19    0.1778E-03
  1554.51    0.2036E-03
  1556.84    0.2352E-03
  1559.16    0.2744E-03
  1561.49    0.3235E-03
  1563.81    0.3860E-03
  1566.14    0.4665E-03
  1568.46    0.5714E-03
  1570.79    0.7091E-03
  1573.11    0.8897E-03
  1575.44    0.1122E-02
  1577.76    0.1403E-02
  1580.09    0.1700E-02
  1582.41    0.1932E-02
  1584.73    0.1997E-02
  1587.06    0.1858E-02
  1589.38    0.1589E-02
  1591.71    0.1291E-02
  1594.03    0.1027E-02
  1596.36    0.8152E-03
  1598.68    0.6521E-03
  1601.01    0.5280E-03
  1603.33    0.4333E-03
  1605.66    0.3604E-03
  1607.98    0.3034E-03
  1610.31    0.2585E-03
  1612.63    0.2224E-03
  1614.96    0.1932E-03
  1617.28    0.1693E-03
  1619.61    0.1495E-03
  1621.93    0.1329E-03
  1624.26    0.1189E-03
  1626.58    0.1069E-03
  1628.91    0.9670E-04
  1631.23    0.8787E-04
  1633.55    0.8018E-04
  1635.88    0.7347E-04
  1638.20    0.6756E-04
  1640.53    0.6234E-04
  1642.85    0.5771E-04
  1645.18    0.5358E-04
  1647.50    0.4988E-04
  1649.83    0.4656E-04
  1652.15    0.4356E-04
  1654.48    0.4085E-04
  1656.80    0.3839E-04
  1659.13    0.3615E-04
  1661.45    0.3411E-04
  1663.78    0.3223E-04
  1666.10    0.3052E-04
  1668.43    0.2894E-04
  1670.75    0.2748E-04
  1673.08    0.2614E-04
  1675.40    0.2489E-04
  1677.72    0.2374E-04
  1680.05    0.2267E-04
  1682.37    0.2167E-04
  1684.70    0.2074E-04
  1687.02    0.1987E-04
  1689.35    0.1906E-04
  1691.67    0.1830E-04
  1694.00    0.1759E-04
  1696.32    0.1692E-04
  1698.65    0.1629E-04
  1700.97    0.1570E-04
  1703.30    0.1514E-04
  1705.62    0.1461E-04
  1707.95    0.1412E-04
  1710.27    0.1365E-04
  1712.60    0.1320E-04
  1714.92    0.1278E-04
  1717.25    0.1238E-04
  1719.57    0.1201E-04
  1721.89    0.1165E-04
  1724.22    0.1130E-04
  1726.54    0.1098E-04
  1728.87    0.1067E-04
  1731.19    0.1037E-04
  1733.52    0.1009E-04
  1735.84    0.9825E-05
  1738.17    0.9569E-05
  1740.49    0.9324E-05
  1742.82    0.9090E-05
  1745.14    0.8867E-05
  1747.47    0.8652E-05
  1749.79    0.8447E-05
  1752.12    0.8251E-05
  1754.44    0.8062E-05
  1756.77    0.7881E-05
  1759.09    0.7708E-05
  1761.42    0.7541E-05
  1763.74    0.7381E-05
  1766.06    0.7227E-05
  1768.39    0.7079E-05
  1770.71    0.6936E-05
  1773.04    0.6799E-05
  1775.36    0.6667E-05
  1777.69    0.6540E-05
  1780.01    0.6417E-05
  1782.34    0.6299E-05
  1784.66    0.6185E-05
  1786.99    0.6075E-05
  1789.31    0.5968E-05
  1791.64    0.5866E-05
  1793.96    0.5767E-05
  1796.29    0.5671E-05
  1798.61    0.5578E-05
  1800.94    0.5489E-05
  1803.26    0.5402E-05
  1805.59    0.5318E-05
  1807.91    0.5237E-05
  1810.23    0.5159E-05
  1812.56    0.5083E-05
  1814.88    0.5009E-05
  1817.21    0.4938E-05
  1819.53    0.4869E-05
  1821.86    0.4802E-05
  1824.18    0.4737E-05
  1826.51    0.4674E-05
  1828.83    0.4613E-05
  1831.16    0.4554E-05
  1833.48    0.4496E-05
  1835.81    0.4440E-05
  1838.13    0.4386E-05
  1840.46    0.4333E-05
  1842.78    0.4282E-05
  1845.11    0.4232E-05
  1847.43    0.4184E-05
  1849.76    0.4137E-05
  1852.08    0.4092E-05
  1854.40    0.4047E-05
  1856.73    0.4004E-05
  1859.05    0.3962E-05
  1861.38    0.3921E-05
  1863.70    0.3882E-05
  1866.03    0.3843E-05
  1868.35    0.3805E-05
  1870.68    0.3769E-05
  1873.00    0.3733E-05
  1875.33    0.3699E-05
  1877.65    0.3665E-05
  1879.98    0.3632E-05
  1882.30    0.3600E-05
  1884.63    0.3569E-05
  1886.95    0.3538E-05
  1889.28    0.3509E-05
  1891.60    0.3480E-05
  1893.93    0.3452E-05
  1896.25    0.3425E-05
  1898.58    0.3398E-05
  1900.90    0.3372E-05
  1903.22    0.3347E-05
  1905.55    0.3322E-05
  1907.87    0.3298E-05
  1910.20    0.3274E-05
  1912.52    0.3251E-05
  1914.85    0.3229E-05
  1917.17    0.3207E-05
  1919.50    0.3186E-05
  1921.82    0.3166E-05
  1924.15    0.3145E-05
  1926.47    0.3126E-05
  1928.80    0.3106E-05
  1931.12    0.3088E-05
  1933.45    0.3070E-05
  1935.77    0.3052E-05
  1938.10    0.3034E-05
  1940.42    0.3017E-05
  1942.75    0.3001E-05
  1945.07    0.2985E-05
  1947.39    0.2969E-05
  1949.72    0.2954E-05
  1952.04    0.2939E-05
  1954.37    0.2924E-05
  1956.69    0.2910E-05
  1959.02    0.2896E-05
  1961.34    0.2883E-05
  1963.67    0.2869E-05
  1965.99    0.2857E-05
  1968.32    0.2844E-05
  1970.64    0.2832E-05
  1972.97    0.2820E-05
  1975.29    0.2808E-05
  1977.62    0.2797E-05
  1979.94    0.2786E-05
  1982.27    0.2775E-05
  1984.59    0.2765E-05
  1986.92    0.2754E-05
  1989.24    0.2744E-05
  1991.56    0.2735E-05
  1993.89    0.2725E-05
  1996.21    0.2716E-05
  1998.54    0.2707E-05
  2000.86    0.2698E-05
  2003.19    0.2690E-05
  2005.51    0.2682E-05
  2007.84    0.2674E-05
  2010.16    0.2666E-05
  2012.49    0.2658E-05
  2014.81    0.2651E-05
  2017.14    0.2644E-05
  2019.46    0.2637E-05
  2021.79    0.2630E-05
  2024.11    0.2623E-05
  2026.44    0.2617E-05
  2028.76    0.2611E-05
  2031.09    0.2605E-05
  2033.41    0.2599E-05
  2035.73    0.2593E-05
  2038.06    0.2588E-05
  2040.38    0.2582E-05
  2042.71    0.2577E-05
  2045.03    0.2572E-05
  2047.36    0.2568E-05
  2049.68    0.2563E-05
  2052.01    0.2558E-05
  2054.33    0.2554E-05
  2056.66    0.2550E-05
  2058.98    0.2546E-05
  2061.31    0.2542E-05
  2063.63    0.2538E-05
  2065.96    0.2535E-05
  2068.28    0.2531E-05
  2070.61    0.2528E-05
  2072.93    0.2525E-05
  2075.26    0.2522E-05
  2077.58    0.2519E-05
  2079.90    0.2516E-05
  2082.23    0.2513E-05
  2084.55    0.2511E-05
  2086.88    0.2508E-05
  2089.20    0.2506E-05
  2091.53    0.2504E-05
  2093.85    0.2502E-05
  2096.18    0.2500E-05
  2098.50    0.2498E-05
  2100.83    0.2496E-05
  2103.15    0.2495E-05
  2105.48    0.2493E-05
  2107.80    0.2492E-05
  2110.13    0.2491E-05
  2112.45    0.2490E-05
  2114.78    0.2488E-05
  2117.10    0.2488E-05
  2119.43    0.2487E-05
  2121.75    0.2486E-05
  2124.07    0.2485E-05
  2126.40    0.2485E-05
  2128.72    0.2484E-05
  2131.05    0.2484E-05
  2133.37    0.2484E-05
  2135.70    0.2484E-05
  2138.02    0.2484E-05
  2140.35    0.2484E-05
  2142.67    0.2484E-05
  2145.00    0.2484E-05
  2147.32    0.2484E-05
  2149.65    0.2485E-05
  2151.97    0.2485E-05
  2154.30    0.2486E-05
  2156.62    0.2487E-05
  2158.95    0.2487E-05
  2161.27    0.2488E-05
  2163.60    0.2489E-05
  2165.92    0.2490E-05
  2168.25    0.2491E-05
  2170.57    0.2492E-05
  2172.89    0.2494E-05
  2175.22    0.2495E-05
  2177.54    0.2497E-05
  2179.87    0.2498E-05
  2182.19    0.2500E-05
  2184.52    0.2501E-05
  2186.84    0.2503E-05
  2189.17    0.2505E-05
  2191.49    0.2507E-05
  2193.82    0.2509E-05
  2196.14    0.2511E-05
  2198.47    0.2513E-05
  2200.79    0.2515E-05
  2203.12    0.2517E-05
  2205.44    0.2520E-05
  2207.77    0.2522E-05
  2210.09    0.2525E-05
  2212.42    0.2527E-05
  2214.74    0.2530E-05
  2217.06    0.2533E-05
  2219.39    0.2535E-05
  2221.71    0.2538E-05
  2224.04    0.2541E-05
  2226.36    0.2544E-05
  2228.69    0.2547E-05
  2231.01    0.2550E-05
  2233.34    0.2553E-05
  2235.66    0.2557E-05
  2237.99    0.2560E-05
  2240.31    0.2563E-05
  2242.64    0.2567E-05
  2244.96    0.2570E-05
  2247.29    0.2574E-05
  2249.61    0.2578E-05
  2251.94    0.2581E-05
  2254.26    0.2585E-05
  2256.59    0.2589E-05
  2258.91    0.2593E-05
  2261.23    0.2597E-05
  2263.56    0.2601E-05
  2265.88    0.2605E-05
  2268.21    0.2609E-05
  2270.53    0.2614E-05
  2272.86    0.2618E-05
  2275.18    0.2622E-05
  2277.51    0.2627E-05
  2279.83    0.2631E-05
  2282.16    0.2636E-05
  2284.48    0.2640E-05
  2286.81    0.2645E-05
  2289.13    0.2650E-05
  2291.46    0.2655E-05
  2293.78    0.2660E-05
  2296.11    0.2664E-05
  2298.43    0.2670E-05
  2300.76    0.2675E-05
  2303.08    0.2680E-05
  2305.40    0.2685E-05
  2307.73    0.2690E-05
  2310.05    0.2696E-05
  2312.38    0.2701E-05
  2314.70    0.2706E-05
  2317.03    0.2712E-05
  2319.35    0.2717E-05
  2321.68    0.2723E-05
  2324.00    0.2729E-05
  2326.33    0.2735E-05
  2328.65    0.2740E-05
  2330.98    0.2746E-05
  2333.30    0.2752E-05
  2335.63    0.2758E-05
  2337.95    0.2764E-05
  2340.28    0.2770E-05
  2342.60    0.2777E-05
  2344.93    0.2783E-05
  2347.25    0.2789E-05
  2349.57    0.2796E-05
  2351.90    0.2802E-05
  2354.22    0.2809E-05
  2356.55    0.2815E-05
  2358.87    0.2822E-05
  2361.20    0.2829E-05
  2363.52    0.2835E-05
  2365.85    0.2842E-05
  2368.17    0.2849E-05
  2370.50    0.2856E-05
  2372.82    0.2863E-05
  2375.15    0.2870E-05
  2377.47    0.2877E-05
  2379.80    0.2885E-05
  2382.12    0.2892E-05
  2384.45    0.2899E-05
  2386.77    0.2907E-05
  2389.10    0.2914E-05
  2391.42    0.2922E-05
  2393.74    0.2929E-05
  2396.07    0.2937E-05
  2398.39    0.2945E-05
  2400.72    0.2952E-05
  2403.04    0.2960E-05
  2405.37    0.2968E-05
  2407.69    0.2976E-05
  2410.02    0.2984E-05
  2412.34    0.2993E-05
  2414.67    0.3001E-05
  2416.99    0.3009E-05
  2419.32    0.3017E-05
  2421.64    0.3026E-05
  2423.97    0.3034E-05
  2426.29    0.3043E-05
  2428.62    0.3051E-05
  2430.94    0.3060E-05
  2433.27    0.3069E-05
  2435.59    0.3078E-05
  2437.92    0.3087E-05
  2440.24    0.3096E-05
  2442.56    0.3105E-05
  2444.89    0.3114E-05
  2447.21    0.3123E-05
  2449.54    0.3132E-05
  2451.86    0.3141E-05
  2454.19    0.3151E-05
  2456.51    0.3160E-05
  2458.84    0.3170E-05
  2461.16    0.3179E-05
  2463.49    0.3189E-05
  2465.81    0.3199E-05
  2468.14    0.3209E-05
  2470.46    0.3219E-05
  2472.79    0.3229E-05
  2475.11    0.3239E-05
  2477.44    0.3249E-05
  2479.76    0.3259E-05
  2482.09    0.3269E-05
  2484.41    0.3280E-05
  2486.73    0.3290E-05
  2489.06    0.3301E-05
  2491.38    0.3311E-05
  2493.71    0.3322E-05
  2496.03    0.3333E-05
  2498.36    0.3344E-05
  2500.68    0.3354E-05
  2503.01    0.3365E-05
  2505.33    0.3377E-05
  2507.66    0.3388E-05
  2509.98    0.3399E-05
  2512.31    0.3410E-05
  2514.63    0.3422E-05
  2516.96    0.3433E-05
  2519.28    0.3445E-05
  2521.61    0.3456E-05
  2523.93    0.3468E-05
  2526.26    0.3480E-05
  2528.58    0.3492E-05
  2530.90    0.3504E-05
  2533.23    0.3516E-05
  2535.55    0.3528E-05
  2537.88    0.3540E-05
  2540.20    0.3553E-05
  2542.53    0.3565E-05
  2544.85    0.3578E-05
  2547.18    0.3590E-05
  2549.50    0.3603E-05
  2551.83    0.3616E-05
  2554.15    0.3629E-05
  2556.48    0.3642E-05
  2558.80    0.3655E-05
  2561.13    0.3668E-05
  2563.45    0.3681E-05
  2565.78    0.3695E-05
  2568.10    0.3708E-05
  2570.43    0.3722E-05
  2572.75    0.3735E-05
  2575.07    0.3749E-05
  2577.40    0.3763E-05
  2579.72    0.3777E-05
  2582.05    0.3791E-05
  2584.37    0.3805E-05
  2586.70    0.3819E-05
  2589.02    0.3834E-05
  2591.35    0.3848E-05
  2593.67    0.3863E-05
  2596.00    0.3878E-05
  2598.32    0.3892E-05
  2600.65    0.3907E-05
  2602.97    0.3922E-05
  2605.30    0.3937E-05
  2607.62    0.3952E-05
  2609.95    0.3968E-05
  2612.27    0.3983E-05
  2614.60    0.3999E-05
  2616.92    0.4014E-05
  2619.24    0.4030E-05
  2621.57    0.4046E-05
  2623.89    0.4062E-05
  2626.22    0.4078E-05
  2628.54    0.4094E-05
  2630.87    0.4111E-05
  2633.19    0.4127E-05
  2635.52    0.4144E-05
  2637.84    0.4161E-05
  2640.17    0.4177E-05
  2642.49    0.4194E-05
  2644.82    0.4211E-05
  2647.14    0.4229E-05
  2649.47    0.4246E-05
  2651.79    0.4263E-05
  2654.12    0.4281E-05
  2656.44    0.4299E-05
  2658.77    0.4317E-05
  2661.09    0.4335E-05
  2663.41    0.4353E-05
  2665.74    0.4371E-05
  2668.06    0.4389E-05
  2670.39    0.4408E-05
  2672.71    0.4426E-05
  2675.04    0.4445E-05
  2677.36    0.4464E-05
  2679.69    0.4483E-05
  2682.01    0.4502E-05
  2684.34    0.4522E-05
  2686.66    0.4541E-05
  2688.99    0.4561E-05
  2691.31    0.4581E-05
  2693.64    0.4601E-05
  2695.96    0.4621E-05
  2698.29    0.4641E-05
  2700.61    0.4661E-05
  2702.94    0.4682E-05
  2705.26    0.4703E-05
  2707.58    0.4723E-05
  2709.91    0.4744E-05
  2712.23    0.4766E-05
  2714.56    0.4787E-05
  2716.88    0.4808E-05
  2719.21    0.4830E-05
  2721.53    0.4852E-05
  2723.86    0.4874E-05
  2726.18    0.4896E-05
  2728.51    0.4918E-05
  2730.83    0.4941E-05
  2733.16    0.4963E-05
  2735.48    0.4986E-05
  2737.81    0.5009E-05
  2740.13    0.5032E-05
  2742.46    0.5056E-05
  2744.78    0.5079E-05
  2747.11    0.5103E-05
  2749.43    0.5127E-05
  2751.76    0.5151E-05
  2754.08    0.5175E-05
  2756.40    0.5200E-05
  2758.73    0.5225E-05
  2761.05    0.5249E-05
  2763.38    0.5274E-05
  2765.70    0.5300E-05
  2768.03    0.5325E-05
  2770.35    0.5351E-05
  2772.68    0.5377E-05
  2775.00    0.5403E-05
  2777.33    0.5429E-05
  2779.65    0.5456E-05
  2781.98    0.5482E-05
  2784.30    0.5509E-05
  2786.63    0.5536E-05
  2788.95    0.5564E-05
  2791.28    0.5591E-05
  2793.60    0.5619E-05
  2795.93    0.5647E-05
  2798.25    0.5675E-05
  2800.57    0.5704E-05
  2802.90    0.5732E-05
  2805.22    0.5761E-05
  2807.55    0.5790E-05
  2809.87    0.5820E-05
  2812.20    0.5849E-05
  2814.52    0.5879E-05
  2816.85    0.5909E-05
  2819.17    0.5940E-05
  2821.50    0.5970E-05
  2823.82    0.6001E-05
  2826.15    0.6032E-05
  2828.47    0.6064E-05
  2830.80    0.6095E-05
  2833.12    0.6127E-05
  2835.45    0.6160E-05
  2837.77    0.6192E-05
  2840.10    0.6225E-05
  2842.42    0.6258E-05
  2844.74    0.6291E-05
  2847.07    0.6325E-05
  2849.39    0.6359E-05
  2851.72    0.6393E-05
  2854.04    0.6427E-05
  2856.37    0.6462E-05
  2858.69    0.6497E-05
  2861.02    0.6532E-05
  2863.34    0.6568E-05
  2865.67    0.6604E-05
  2867.99    0.6640E-05
  2870.32    0.6677E-05
  2872.64    0.6714E-05
  2874.97    0.6751E-05
  2877.29    0.6788E-05
  2879.62    0.6826E-05
  2881.94    0.6864E-05
  2884.27    0.6903E-05
  2886.59    0.6942E-05
  2888.91    0.6981E-05
  2891.24    0.7021E-05
  2893.56    0.7061E-05
  2895.89    0.7101E-05
  2898.21    0.7142E-05
  2900.54    0.7183E-05
  2902.86    0.7224E-05
  2905.19    0.7266E-05
  2907.51    0.7308E-05
  2909.84    0.7351E-05
  2912.16    0.7393E-05
  2914.49    0.7437E-05
  2916.81    0.7480E-05
  2919.14    0.7525E-05
  2921.46    0.7569E-05
  2923.79    0.7614E-05
  2926.11    0.7659E-05
  2928.44    0.7705E-05
  2930.76    0.7751E-05
  2933.08    0.7798E-05
  2935.41    0.7845E-05
  2937.73    0.7893E-05
  2940.06    0.7941E-05
  2942.38    0.7989E-05
  2944.71    0.8038E-05
  2947.03    0.8087E-05
  2949.36    0.8137E-05
  2951.68    0.8187E-05
  2954.01    0.8238E-05
  2956.33    0.8290E-05
  2958.66    0.8341E-05
  2960.98    0.8394E-05
  2963.31    0.8446E-05
  2965.63    0.8500E-05
  2967.96    0.8553E-05
  2970.28    0.8608E-05
  2972.61    0.8663E-05
  2974.93    0.8718E-05
  2977.25    0.8774E-05
  2979.58    0.8831E-05
  2981.90    0.8888E-05
  2984.23    0.8945E-05
  2986.55    0.9004E-05
  2988.88    0.9063E-05
  2991.20    0.9122E-05
  2993.53    0.9182E-05
  2995.85    0.9243E-05
  2998.18    0.9304E-05
  3000.50    0.9366E-05
  3002.83    0.9428E-05
  3005.15    0.9492E-05
  3007.48    0.9555E-05
  3009.80    0.9620E-05
  3012.13    0.9685E-05
  3014.45    0.9751E-05
  3016.78    0.9818E-05
  3019.10    0.9885E-05
  3021.43    0.9953E-05
  3023.75    0.1002E-04
  3026.07    0.1009E-04
  3028.40    0.1016E-04
  3030.72    0.1023E-04
  3033.05    0.1030E-04
  3035.37    0.1038E-04
  3037.70    0.1045E-04
  3040.02    0.1052E-04
  3042.35    0.1060E-04
  3044.67    0.1067E-04
  3047.00    0.1075E-04
  3049.32    0.1083E-04
  3051.65    0.1091E-04
  3053.97    0.1098E-04
  3056.30    0.1106E-04
  3058.62    0.1115E-04
  3060.95    0.1123E-04
  3063.27    0.1131E-04
  3065.60    0.1139E-04
  3067.92    0.1148E-04
  3070.24    0.1156E-04
  3072.57    0.1165E-04
  3074.89    0.1174E-04
  3077.22    0.1183E-04
  3079.54    0.1192E-04
  3081.87    0.1201E-04
  3084.19    0.1210E-04
  3086.52    0.1219E-04
  3088.84    0.1228E-04
  3091.17    0.1238E-04
  3093.49    0.1247E-04
  3095.82    0.1257E-04
  3098.14    0.1267E-04
  3100.47    0.1277E-04
  3102.79    0.1287E-04
  3105.12    0.1297E-04
  3107.44    0.1307E-04
  3109.77    0.1318E-04
  3112.09    0.1328E-04
  3114.41    0.1339E-04
  3116.74    0.1350E-04
  3119.06    0.1361E-04
  3121.39    0.1372E-04
  3123.71    0.1383E-04
  3126.04    0.1395E-04
  3128.36    0.1406E-04
  3130.69    0.1418E-04
  3133.01    0.1430E-04
  3135.34    0.1442E-04
  3137.66    0.1454E-04
  3139.99    0.1466E-04
  3142.31    0.1478E-04
  3144.64    0.1491E-04
  3146.96    0.1504E-04
  3149.29    0.1517E-04
  3151.61    0.1530E-04
  3153.94    0.1543E-04
  3156.26    0.1556E-04
  3158.58    0.1570E-04
  3160.91    0.1584E-04
  3163.23    0.1598E-04
  3165.56    0.1612E-04
  3167.88    0.1626E-04
  3170.21    0.1641E-04
  3172.53    0.1656E-04
  3174.86    0.1670E-04
  3177.18    0.1686E-04
  3179.51    0.1701E-04
  3181.83    0.1717E-04
  3184.16    0.1732E-04
  3186.48    0.1748E-04
  3188.81    0.1765E-04
  3191.13    0.1781E-04
  3193.46    0.1798E-04
  3195.78    0.1815E-04
  3198.11    0.1832E-04
  3200.43    0.1849E-04
  3202.75    0.1867E-04
  3205.08    0.1885E-04
  3207.40    0.1903E-04
  3209.73    0.1922E-04
  3212.05    0.1940E-04
  3214.38    0.1960E-04
  3216.70    0.1979E-04
  3219.03    0.1998E-04
  3221.35    0.2018E-04
  3223.68    0.2039E-04
  3226.00    0.2059E-04
  3228.33    0.2080E-04
  3230.65    0.2101E-04
  3232.98    0.2123E-04
  3235.30    0.2144E-04
  3237.63    0.2167E-04
  3239.95    0.2189E-04
  3242.28    0.2212E-04
  3244.60    0.2235E-04
  3246.92    0.2259E-04
  3249.25    0.2283E-04
  3251.57    0.2307E-04
  3253.90    0.2332E-04
  3256.22    0.2357E-04
  3258.55    0.2383E-04
  3260.87    0.2409E-04
  3263.20    0.2435E-04
  3265.52    0.2462E-04
  3267.85    0.2489E-04
  3270.17    0.2517E-04
  3272.50    0.2545E-04
  3274.82    0.2574E-04
  3277.15    0.2603E-04
  3279.47    0.2633E-04
  3281.80    0.2663E-04
  3284.12    0.2694E-04
  3286.45    0.2725E-04
  3288.77    0.2757E-04
  3291.10    0.2790E-04
  3293.42    0.2823E-04
  3295.74    0.2856E-04
  3298.07    0.2891E-04
  3300.39    0.2926E-04
  3302.72    0.2961E-04
  3305.04    0.2997E-04
  3307.37    0.3034E-04
  3309.69    0.3072E-04
  3312.02    0.3110E-04
  3314.34    0.3149E-04
  3316.67    0.3189E-04
  3318.99    0.3229E-04
  3321.32    0.3270E-04
  3323.64    0.3312E-04
  3325.97    0.3355E-04
  3328.29    0.3399E-04
  3330.62    0.3444E-04
  3332.94    0.3489E-04
  3335.27    0.3536E-04
  3337.59    0.3583E-04
  3339.91    0.3631E-04
  3342.24    0.3681E-04
  3344.56    0.3731E-04
  3346.89    0.3782E-04
  3349.21    0.3835E-04
  3351.54    0.3888E-04
  3353.86    0.3943E-04
  3356.19    0.3999E-04
  3358.51    0.4056E-04
  3360.84    0.4114E-04
  3363.16    0.4174E-04
  3365.49    0.4235E-04
  3367.81    0.4297E-04
  3370.14    0.4361E-04
  3372.46    0.4426E-04
  3374.79    0.4493E-04
  3377.11    0.4561E-04
  3379.44    0.4630E-04
  3381.76    0.4702E-04
  3384.08    0.4775E-04
  3386.41    0.4850E-04
  3388.73    0.4926E-04
  3391.06    0.5005E-04
  3393.38    0.5085E-04
  3395.71    0.5167E-04
  3398.03    0.5251E-04
  3400.36    0.5338E-04
  3402.68    0.5426E-04
  3405.01    0.5517E-04
  3407.33    0.5610E-04
  3409.66    0.5706E-04
  3411.98    0.5804E-04
  3414.31    0.5904E-04
  3416.63    0.6008E-04
  3418.96    0.6114E-04
  3421.28    0.6223E-04
  3423.61    0.6334E-04
  3425.93    0.6449E-04
  3428.25    0.6567E-04
  3430.58    0.6689E-04
  3432.90    0.6814E-04
  3435.23    0.6942E-04
  3437.55    0.7074E-04
  3439.88    0.7210E-04
  3442.20    0.7350E-04
  3444.53    0.7494E-04
  3446.85    0.7643E-04
  3449.18    0.7796E-04
  3451.50    0.7953E-04
  3453.83    0.8116E-04
  3456.15    0.8283E-04
  3458.48    0.8456E-04
  3460.80    0.8635E-04
  3463.13    0.8819E-04
  3465.45    0.9009E-04
  3467.78    0.9206E-04
  3470.10    0.9409E-04
  3472.42    0.9619E-04
  3474.75    0.9836E-04
  3477.07    0.1006E-03
  3479.40    0.1029E-03
  3481.72    0.1053E-03
  3484.05    0.1078E-03
  3486.37    0.1104E-03
  3488.70    0.1131E-03
  3491.02    0.1159E-03
  3493.35    0.1188E-03
  3495.67    0.1218E-03
  3498.00    0.1249E-03
  3500.32    0.1281E-03
  3502.65    0.1315E-03
  3504.97    0.1350E-03
  3507.30    0.1386E-03
  3509.62    0.1424E-03
  3511.95    0.1464E-03
  3514.27    0.1505E-03
  3516.59    0.1548E-03
  3518.92    0.1593E-03
  3521.24    0.1640E-03
  3523.57    0.1689E-03
  3525.89    0.1740E-03
  3528.22    0.1794E-03
  3530.54    0.1850E-03
  3532.87    0.1909E-03
  3535.19    0.1971E-03
  3537.52    0.2036E-03
  3539.84    0.2104E-03
  3542.17    0.2176E-03
  3544.49    0.2252E-03
  3546.82    0.2331E-03
  3549.14    0.2415E-03
  3551.47    0.2504E-03
  3553.79    0.2598E-03
  3556.12    0.2697E-03
  3558.44    0.2802E-03
  3560.77    0.2914E-03
  3563.09    0.3032E-03
  3565.41    0.3158E-03
  3567.74    0.3291E-03
  3570.06    0.3434E-03
  3572.39    0.3586E-03
  3574.71    0.3749E-03
  3577.04    0.3923E-03
  3579.36    0.4109E-03
  3581.69    0.4310E-03
  3584.01    0.4526E-03
  3586.34    0.4758E-03
  3588.66    0.5009E-03
  3590.99    0.5280E-03
  3593.31    0.5575E-03
  3595.64    0.5895E-03
  3597.96    0.6244E-03
  3600.29    0.6625E-03
  3602.61    0.7042E-03
  3604.94    0.7500E-03
  3607.26    0.8004E-03
  3609.58    0.8561E-03
  3611.91    0.9179E-03
  3614.23    0.9867E-03
  3616.56    0.1064E-02
  3618.88    0.1150E-02
  3621.21    0.1247E-02
  3623.53    0.1357E-02
  3625.86    0.1482E-02
  3628.18    0.1625E-02
  3630.51    0.1790E-02
  3632.83    0.1981E-02
  3635.16    0.2204E-02
  3637.48    0.2466E-02
  3639.81    0.2777E-02
  3642.13    0.3150E-02
  3644.46    0.3600E-02
  3646.78    0.4150E-02
  3649.11    0.4830E-02
  3651.43    0.5682E-02
  3653.75    0.6763E-02
  3656.08    0.8152E-02
  3658.40    0.9960E-02
  3660.73    0.1233E-01
  3663.05    0.1544E-01
  3665.38    0.1946E-01
  3667.70    0.2439E-01
  3670.03    0.2975E-01
  3672.35    0.3422E-01
  3674.68    0.3593E-01
  3677.00    0.3396E-01
  3679.33    0.2936E-01
  3681.65    0.2400E-01
  3683.98    0.1914E-01
  3686.30    0.1520E-01
  3688.63    0.1216E-01
  3690.95    0.9844E-02
  3693.28    0.8080E-02
  3695.60    0.6724E-02
  3697.92    0.5670E-02
  3700.25    0.4840E-02
  3702.57    0.4179E-02
  3704.90    0.3645E-02
  3707.22    0.3211E-02
  3709.55    0.2853E-02
  3711.87    0.2556E-02
  3714.20    0.2308E-02
  3716.52    0.2099E-02
  3718.85    0.1923E-02
  3721.17    0.1773E-02
  3723.50    0.1647E-02
  3725.82    0.1540E-02
  3728.15    0.1449E-02
  3730.47    0.1373E-02
  3732.80    0.1311E-02
  3735.12    0.1261E-02
  3737.45    0.1222E-02
  3739.77    0.1194E-02
  3742.09    0.1177E-02
  3744.42    0.1171E-02
  3746.74    0.1177E-02
  3749.07    0.1196E-02
  3751.39    0.1229E-02
  3753.72    0.1280E-02
  3756.04    0.1350E-02
  3758.37    0.1446E-02
  3760.69    0.1572E-02
  3763.02    0.1739E-02
  3765.34    0.1959E-02
  3767.67    0.2248E-02
  3769.99    0.2631E-02
  3772.32    0.3141E-02
  3774.64    0.3818E-02
  3776.97    0.4703E-02
  3779.29    0.5811E-02
  3781.62    0.7064E-02
  3783.94    0.8198E-02
  3786.26    0.8774E-02
  3788.59    0.8489E-02
  3790.91    0.7490E-02
  3793.24    0.6215E-02
  3795.56    0.5010E-02
  3797.89    0.4015E-02
  3800.21    0.3238E-02
  3802.54    0.2644E-02
  3804.86    0.2190E-02
  3807.19    0.1840E-02
  3809.51    0.1568E-02
  3811.84    0.1352E-02
  3814.16    0.1179E-02
  3816.49    0.1039E-02
  3818.81    0.9239E-03
  3821.14    0.8280E-03
  3823.46    0.7474E-03
  3825.79    0.6790E-03
  3828.11    0.6204E-03
  3830.44    0.5698E-03
  3832.76    0.5258E-03
  3835.08    0.4873E-03
  3837.41    0.4533E-03
  3839.73    0.4232E-03
  3842.06    0.3963E-03
  3844.38    0.3722E-03
  3846.71    0.3506E-03
  3849.03    0.3310E-03
