
 ------------------------------------------------------------
     normal          Raman Scattering Plot
 ------------------------------------------------------------
 Excitation wavelength  514.50 nm
 Convolution lineshape is lorentzian  
 FWHM   20.00  1/cm
 ------------------------------------------------------------
 ------------------------------------------------------------
 # of frequencies :     3
 ------------------------------------------------------------
 #  freq [ 1/cm]  S [Ang**4/amu]
 ------------------------------------------------------------
   1  1584.72        3.8271
   2  3674.31      160.8822
   3  3786.24       48.3355
 ------------------------------------------------------------
  1527.04    0.1345E-03
  1529.37    0.1455E-03
  1531.69    0.1580E-03
  1534.01    0.1721E-03
  1536.34    0.1882E-03
  1538.66    0.2067E-03
  1540.99    0.2280E-03
  1543.31    0.2527E-03
  1545.63    0.2816E-03
  1547.96    0.3156E-03
  1550.28    0.3560E-03
  1552.61    0.4045E-03
  1554.93    0.4632E-03
  1557.25    0.5352E-03
  1559.58    0.6243E-03
  1561.90    0.7362E-03
  1564.22    0.8784E-03
  1566.55    0.1062E-02
  1568.87    0.1300E-02
  1571.20    0.1614E-02
  1573.52    0.2024E-02
  1575.84    0.2552E-02
  1578.17    0.3192E-02
  1580.49    0.3870E-02
  1582.82    0.4402E-02
  1585.14    0.4554E-02
  1587.46    0.4243E-02
  1589.79    0.3630E-02
  1592.11    0.2951E-02
  1594.43    0.2348E-02
  1596.76    0.1863E-02
  1599.08    0.1490E-02
  1601.41    0.1207E-02
  1603.73    0.9899E-03
  1606.05    0.8229E-03
  1608.38    0.6928E-03
  1610.70    0.5899E-03
  1613.03    0.5075E-03
  1615.35    0.4408E-03
  1617.67    0.3860E-03
  1620.00    0.3407E-03
  1622.32    0.3027E-03
  1624.64    0.2707E-03
  1626.97    0.2434E-03
  1629.29    0.2201E-03
  1631.62    0.1999E-03
  1633.94    0.1823E-03
  1636.26    0.1669E-03
  1638.59    0.1534E-03
  1640.91    0.1415E-03
  1643.23    0.1309E-03
  1645.56    0.1215E-03
  1647.88    0.1130E-03
  1650.21    0.1055E-03
  1652.53    0.9861E-04
  1654.85    0.9241E-04
  1657.18    0.8679E-04
  1659.50    0.8167E-04
  1661.83    0.7699E-04
  1664.15    0.7271E-04
  1666.47    0.6879E-04
  1668.80    0.6518E-04
  1671.12    0.6185E-04
  1673.44    0.5878E-04
  1675.77    0.5593E-04
  1678.09    0.5329E-04
  1680.42    0.5084E-04
  1682.74    0.4856E-04
  1685.06    0.4644E-04
  1687.39    0.4445E-04
  1689.71    0.4260E-04
  1692.04    0.4086E-04
  1694.36    0.3923E-04
  1696.68    0.3770E-04
  1699.01    0.3626E-04
  1701.33    0.3491E-04
  1703.65    0.3363E-04
  1705.98    0.3243E-04
  1708.30    0.3129E-04
  1710.63    0.3022E-04
  1712.95    0.2920E-04
  1715.27    0.2824E-04
  1717.60    0.2733E-04
  1719.92    0.2646E-04
  1722.25    0.2564E-04
  1724.57    0.2485E-04
  1726.89    0.2411E-04
  1729.22    0.2340E-04
  1731.54    0.2273E-04
  1733.86    0.2208E-04
  1736.19    0.2147E-04
  1738.51    0.2088E-04
  1740.84    0.2032E-04
  1743.16    0.1978E-04
  1745.48    0.1927E-04
  1747.81    0.1878E-04
  1750.13    0.1831E-04
  1752.46    0.1786E-04
  1754.78    0.1742E-04
  1757.10    0.1701E-04
  1759.43    0.1661E-04
  1761.75    0.1623E-04
  1764.07    0.1586E-04
  1766.40    0.1550E-04
  1768.72    0.1516E-04
  1771.05    0.1484E-04
  1773.37    0.1452E-04
  1775.69    0.1422E-04
  1778.02    0.1392E-04
  1780.34    0.1364E-04
  1782.67    0.1337E-04
  1784.99    0.1310E-04
  1787.31    0.1285E-04
  1789.64    0.1261E-04
  1791.96    0.1237E-04
  1794.28    0.1214E-04
  1796.61    0.1192E-04
  1798.93    0.1171E-04
  1801.26    0.1150E-04
  1803.58    0.1130E-04
  1805.90    0.1110E-04
  1808.23    0.1092E-04
  1810.55    0.1074E-04
  1812.88    0.1056E-04
  1815.20    0.1039E-04
  1817.52    0.1022E-04
  1819.85    0.1006E-04
  1822.17    0.9907E-05
  1824.49    0.9756E-05
  1826.82    0.9610E-05
  1829.14    0.9468E-05
  1831.47    0.9330E-05
  1833.79    0.9195E-05
  1836.11    0.9065E-05
  1838.44    0.8939E-05
  1840.76    0.8816E-05
  1843.09    0.8696E-05
  1845.41    0.8580E-05
  1847.73    0.8467E-05
  1850.06    0.8357E-05
  1852.38    0.8250E-05
  1854.70    0.8146E-05
  1857.03    0.8045E-05
  1859.35    0.7947E-05
  1861.68    0.7851E-05
  1864.00    0.7757E-05
  1866.32    0.7666E-05
  1868.65    0.7578E-05
  1870.97    0.7491E-05
  1873.30    0.7407E-05
  1875.62    0.7325E-05
  1877.94    0.7245E-05
  1880.27    0.7167E-05
  1882.59    0.7091E-05
  1884.91    0.7017E-05
  1887.24    0.6945E-05
  1889.56    0.6875E-05
  1891.89    0.6806E-05
  1894.21    0.6739E-05
  1896.53    0.6673E-05
  1898.86    0.6610E-05
  1901.18    0.6547E-05
  1903.51    0.6486E-05
  1905.83    0.6427E-05
  1908.15    0.6369E-05
  1910.48    0.6312E-05
  1912.80    0.6257E-05
  1915.12    0.6203E-05
  1917.45    0.6150E-05
  1919.77    0.6099E-05
  1922.10    0.6049E-05
  1924.42    0.5999E-05
  1926.74    0.5951E-05
  1929.07    0.5904E-05
  1931.39    0.5859E-05
  1933.72    0.5814E-05
  1936.04    0.5770E-05
  1938.36    0.5727E-05
  1940.69    0.5685E-05
  1943.01    0.5644E-05
  1945.33    0.5604E-05
  1947.66    0.5565E-05
  1949.98    0.5527E-05
  1952.31    0.5490E-05
  1954.63    0.5453E-05
  1956.95    0.5417E-05
  1959.28    0.5382E-05
  1961.60    0.5348E-05
  1963.93    0.5315E-05
  1966.25    0.5282E-05
  1968.57    0.5250E-05
  1970.90    0.5219E-05
  1973.22    0.5188E-05
  1975.54    0.5158E-05
  1977.87    0.5129E-05
  1980.19    0.5100E-05
  1982.52    0.5072E-05
  1984.84    0.5045E-05
  1987.16    0.5018E-05
  1989.49    0.4992E-05
  1991.81    0.4966E-05
  1994.14    0.4941E-05
  1996.46    0.4917E-05
  1998.78    0.4893E-05
  2001.11    0.4869E-05
  2003.43    0.4847E-05
  2005.75    0.4824E-05
  2008.08    0.4802E-05
  2010.40    0.4781E-05
  2012.73    0.4760E-05
  2015.05    0.4739E-05
  2017.37    0.4719E-05
  2019.70    0.4700E-05
  2022.02    0.4681E-05
  2024.35    0.4662E-05
  2026.67    0.4644E-05
  2028.99    0.4626E-05
  2031.32    0.4608E-05
  2033.64    0.4591E-05
  2035.96    0.4574E-05
  2038.29    0.4558E-05
  2040.61    0.4542E-05
  2042.94    0.4527E-05
  2045.26    0.4511E-05
  2047.58    0.4496E-05
  2049.91    0.4482E-05
  2052.23    0.4468E-05
  2054.56    0.4454E-05
  2056.88    0.4441E-05
  2059.20    0.4427E-05
  2061.53    0.4415E-05
  2063.85    0.4402E-05
  2066.17    0.4390E-05
  2068.50    0.4378E-05
  2070.82    0.4366E-05
  2073.15    0.4355E-05
  2075.47    0.4344E-05
  2077.79    0.4333E-05
  2080.12    0.4323E-05
  2082.44    0.4313E-05
  2084.76    0.4303E-05
  2087.09    0.4293E-05
  2089.41    0.4284E-05
  2091.74    0.4274E-05
  2094.06    0.4266E-05
  2096.38    0.4257E-05
  2098.71    0.4249E-05
  2101.03    0.4240E-05
  2103.36    0.4233E-05
  2105.68    0.4225E-05
  2108.00    0.4217E-05
  2110.33    0.4210E-05
  2112.65    0.4203E-05
  2114.97    0.4197E-05
  2117.30    0.4190E-05
  2119.62    0.4184E-05
  2121.95    0.4178E-05
  2124.27    0.4172E-05
  2126.59    0.4166E-05
  2128.92    0.4161E-05
  2131.24    0.4155E-05
  2133.57    0.4150E-05
  2135.89    0.4145E-05
  2138.21    0.4141E-05
  2140.54    0.4136E-05
  2142.86    0.4132E-05
  2145.18    0.4128E-05
  2147.51    0.4124E-05
  2149.83    0.4120E-05
  2152.16    0.4117E-05
  2154.48    0.4113E-05
  2156.80    0.4110E-05
  2159.13    0.4107E-05
  2161.45    0.4104E-05
  2163.78    0.4102E-05
  2166.10    0.4099E-05
  2168.42    0.4097E-05
  2170.75    0.4095E-05
  2173.07    0.4093E-05
  2175.39    0.4091E-05
  2177.72    0.4089E-05
  2180.04    0.4087E-05
  2182.37    0.4086E-05
  2184.69    0.4085E-05
  2187.01    0.4084E-05
  2189.34    0.4083E-05
  2191.66    0.4082E-05
  2193.99    0.4082E-05
  2196.31    0.4081E-05
  2198.63    0.4081E-05
  2200.96    0.4081E-05
  2203.28    0.4081E-05
  2205.60    0.4081E-05
  2207.93    0.4081E-05
  2210.25    0.4081E-05
  2212.58    0.4082E-05
  2214.90    0.4083E-05
  2217.22    0.4083E-05
  2219.55    0.4084E-05
  2221.87    0.4085E-05
  2224.20    0.4087E-05
  2226.52    0.4088E-05
  2228.84    0.4090E-05
  2231.17    0.4091E-05
  2233.49    0.4093E-05
  2235.81    0.4095E-05
  2238.14    0.4097E-05
  2240.46    0.4099E-05
  2242.79    0.4101E-05
  2245.11    0.4104E-05
  2247.43    0.4106E-05
  2249.76    0.4109E-05
  2252.08    0.4111E-05
  2254.41    0.4114E-05
  2256.73    0.4117E-05
  2259.05    0.4120E-05
  2261.38    0.4124E-05
  2263.70    0.4127E-05
  2266.02    0.4131E-05
  2268.35    0.4134E-05
  2270.67    0.4138E-05
  2273.00    0.4142E-05
  2275.32    0.4146E-05
  2277.64    0.4150E-05
  2279.97    0.4154E-05
  2282.29    0.4158E-05
  2284.62    0.4163E-05
  2286.94    0.4167E-05
  2289.26    0.4172E-05
  2291.59    0.4177E-05
  2293.91    0.4181E-05
  2296.23    0.4186E-05
  2298.56    0.4191E-05
  2300.88    0.4197E-05
  2303.21    0.4202E-05
  2305.53    0.4207E-05
  2307.85    0.4213E-05
  2310.18    0.4219E-05
  2312.50    0.4224E-05
  2314.83    0.4230E-05
  2317.15    0.4236E-05
  2319.47    0.4242E-05
  2321.80    0.4249E-05
  2324.12    0.4255E-05
  2326.44    0.4261E-05
  2328.77    0.4268E-05
  2331.09    0.4274E-05
  2333.42    0.4281E-05
  2335.74    0.4288E-05
  2338.06    0.4295E-05
  2340.39    0.4302E-05
  2342.71    0.4309E-05
  2345.04    0.4316E-05
  2347.36    0.4324E-05
  2349.68    0.4331E-05
  2352.01    0.4339E-05
  2354.33    0.4347E-05
  2356.65    0.4354E-05
  2358.98    0.4362E-05
  2361.30    0.4370E-05
  2363.63    0.4378E-05
  2365.95    0.4387E-05
  2368.27    0.4395E-05
  2370.60    0.4403E-05
  2372.92    0.4412E-05
  2375.25    0.4421E-05
  2377.57    0.4429E-05
  2379.89    0.4438E-05
  2382.22    0.4447E-05
  2384.54    0.4456E-05
  2386.86    0.4466E-05
  2389.19    0.4475E-05
  2391.51    0.4484E-05
  2393.84    0.4494E-05
  2396.16    0.4503E-05
  2398.48    0.4513E-05
  2400.81    0.4523E-05
  2403.13    0.4533E-05
  2405.46    0.4543E-05
  2407.78    0.4553E-05
  2410.10    0.4563E-05
  2412.43    0.4574E-05
  2414.75    0.4584E-05
  2417.07    0.4595E-05
  2419.40    0.4606E-05
  2421.72    0.4616E-05
  2424.05    0.4627E-05
  2426.37    0.4638E-05
  2428.69    0.4649E-05
  2431.02    0.4661E-05
  2433.34    0.4672E-05
  2435.67    0.4684E-05
  2437.99    0.4695E-05
  2440.31    0.4707E-05
  2442.64    0.4719E-05
  2444.96    0.4731E-05
  2447.28    0.4743E-05
  2449.61    0.4755E-05
  2451.93    0.4767E-05
  2454.26    0.4779E-05
  2456.58    0.4792E-05
  2458.90    0.4804E-05
  2461.23    0.4817E-05
  2463.55    0.4830E-05
  2465.88    0.4843E-05
  2468.20    0.4856E-05
  2470.52    0.4869E-05
  2472.85    0.4882E-05
  2475.17    0.4896E-05
  2477.49    0.4909E-05
  2479.82    0.4923E-05
  2482.14    0.4937E-05
  2484.47    0.4951E-05
  2486.79    0.4965E-05
  2489.11    0.4979E-05
  2491.44    0.4993E-05
  2493.76    0.5007E-05
  2496.09    0.5022E-05
  2498.41    0.5037E-05
  2500.73    0.5051E-05
  2503.06    0.5066E-05
  2505.38    0.5081E-05
  2507.70    0.5096E-05
  2510.03    0.5111E-05
  2512.35    0.5127E-05
  2514.68    0.5142E-05
  2517.00    0.5158E-05
  2519.32    0.5174E-05
  2521.65    0.5190E-05
  2523.97    0.5206E-05
  2526.29    0.5222E-05
  2528.62    0.5238E-05
  2530.94    0.5254E-05
  2533.27    0.5271E-05
  2535.59    0.5288E-05
  2537.91    0.5304E-05
  2540.24    0.5321E-05
  2542.56    0.5338E-05
  2544.89    0.5355E-05
  2547.21    0.5373E-05
  2549.53    0.5390E-05
  2551.86    0.5408E-05
  2554.18    0.5426E-05
  2556.50    0.5444E-05
  2558.83    0.5462E-05
  2561.15    0.5480E-05
  2563.48    0.5498E-05
  2565.80    0.5517E-05
  2568.12    0.5535E-05
  2570.45    0.5554E-05
  2572.77    0.5573E-05
  2575.10    0.5592E-05
  2577.42    0.5611E-05
  2579.74    0.5630E-05
  2582.07    0.5650E-05
  2584.39    0.5669E-05
  2586.71    0.5689E-05
  2589.04    0.5709E-05
  2591.36    0.5729E-05
  2593.69    0.5750E-05
  2596.01    0.5770E-05
  2598.33    0.5791E-05
  2600.66    0.5811E-05
  2602.98    0.5832E-05
  2605.31    0.5853E-05
  2607.63    0.5874E-05
  2609.95    0.5896E-05
  2612.28    0.5917E-05
  2614.60    0.5939E-05
  2616.92    0.5961E-05
  2619.25    0.5983E-05
  2621.57    0.6005E-05
  2623.90    0.6027E-05
  2626.22    0.6050E-05
  2628.54    0.6073E-05
  2630.87    0.6096E-05
  2633.19    0.6119E-05
  2635.52    0.6142E-05
  2637.84    0.6165E-05
  2640.16    0.6189E-05
  2642.49    0.6213E-05
  2644.81    0.6237E-05
  2647.13    0.6261E-05
  2649.46    0.6285E-05
  2651.78    0.6310E-05
  2654.11    0.6334E-05
  2656.43    0.6359E-05
  2658.75    0.6384E-05
  2661.08    0.6410E-05
  2663.40    0.6435E-05
  2665.73    0.6461E-05
  2668.05    0.6487E-05
  2670.37    0.6513E-05
  2672.70    0.6539E-05
  2675.02    0.6566E-05
  2677.34    0.6592E-05
  2679.67    0.6619E-05
  2681.99    0.6646E-05
  2684.32    0.6674E-05
  2686.64    0.6701E-05
  2688.96    0.6729E-05
  2691.29    0.6757E-05
  2693.61    0.6785E-05
  2695.94    0.6813E-05
  2698.26    0.6842E-05
  2700.58    0.6871E-05
  2702.91    0.6900E-05
  2705.23    0.6929E-05
  2707.55    0.6958E-05
  2709.88    0.6988E-05
  2712.20    0.7018E-05
  2714.53    0.7048E-05
  2716.85    0.7079E-05
  2719.17    0.7109E-05
  2721.50    0.7140E-05
  2723.82    0.7171E-05
  2726.15    0.7203E-05
  2728.47    0.7234E-05
  2730.79    0.7266E-05
  2733.12    0.7298E-05
  2735.44    0.7331E-05
  2737.76    0.7363E-05
  2740.09    0.7396E-05
  2742.41    0.7429E-05
  2744.74    0.7463E-05
  2747.06    0.7497E-05
  2749.38    0.7531E-05
  2751.71    0.7565E-05
  2754.03    0.7599E-05
  2756.36    0.7634E-05
  2758.68    0.7669E-05
  2761.00    0.7704E-05
  2763.33    0.7740E-05
  2765.65    0.7776E-05
  2767.97    0.7812E-05
  2770.30    0.7849E-05
  2772.62    0.7885E-05
  2774.95    0.7922E-05
  2777.27    0.7960E-05
  2779.59    0.7997E-05
  2781.92    0.8035E-05
  2784.24    0.8074E-05
  2786.57    0.8112E-05
  2788.89    0.8151E-05
  2791.21    0.8190E-05
  2793.54    0.8230E-05
  2795.86    0.8270E-05
  2798.18    0.8310E-05
  2800.51    0.8351E-05
  2802.83    0.8392E-05
  2805.16    0.8433E-05
  2807.48    0.8474E-05
  2809.80    0.8516E-05
  2812.13    0.8558E-05
  2814.45    0.8601E-05
  2816.78    0.8644E-05
  2819.10    0.8687E-05
  2821.42    0.8731E-05
  2823.75    0.8775E-05
  2826.07    0.8819E-05
  2828.39    0.8864E-05
  2830.72    0.8909E-05
  2833.04    0.8955E-05
  2835.37    0.9001E-05
  2837.69    0.9047E-05
  2840.01    0.9094E-05
  2842.34    0.9141E-05
  2844.66    0.9189E-05
  2846.99    0.9237E-05
  2849.31    0.9285E-05
  2851.63    0.9334E-05
  2853.96    0.9383E-05
  2856.28    0.9432E-05
  2858.60    0.9482E-05
  2860.93    0.9533E-05
  2863.25    0.9584E-05
  2865.58    0.9635E-05
  2867.90    0.9687E-05
  2870.22    0.9739E-05
  2872.55    0.9792E-05
  2874.87    0.9845E-05
  2877.20    0.9899E-05
  2879.52    0.9953E-05
  2881.84    0.1001E-04
  2884.17    0.1006E-04
  2886.49    0.1012E-04
  2888.81    0.1017E-04
  2891.14    0.1023E-04
  2893.46    0.1029E-04
  2895.79    0.1035E-04
  2898.11    0.1040E-04
  2900.43    0.1046E-04
  2902.76    0.1052E-04
  2905.08    0.1058E-04
  2907.41    0.1064E-04
  2909.73    0.1070E-04
  2912.05    0.1076E-04
  2914.38    0.1083E-04
  2916.70    0.1089E-04
  2919.02    0.1095E-04
  2921.35    0.1102E-04
  2923.67    0.1108E-04
  2926.00    0.1114E-04
  2928.32    0.1121E-04
  2930.64    0.1128E-04
  2932.97    0.1134E-04
  2935.29    0.1141E-04
  2937.62    0.1148E-04
  2939.94    0.1155E-04
  2942.26    0.1162E-04
  2944.59    0.1169E-04
  2946.91    0.1176E-04
  2949.23    0.1183E-04
  2951.56    0.1190E-04
  2953.88    0.1197E-04
  2956.21    0.1205E-04
  2958.53    0.1212E-04
  2960.85    0.1220E-04
  2963.18    0.1227E-04
  2965.50    0.1235E-04
  2967.83    0.1242E-04
  2970.15    0.1250E-04
  2972.47    0.1258E-04
  2974.80    0.1266E-04
  2977.12    0.1274E-04
  2979.44    0.1282E-04
  2981.77    0.1290E-04
  2984.09    0.1299E-04
  2986.42    0.1307E-04
  2988.74    0.1315E-04
  2991.06    0.1324E-04
  2993.39    0.1332E-04
  2995.71    0.1341E-04
  2998.03    0.1350E-04
  3000.36    0.1359E-04
  3002.68    0.1368E-04
  3005.01    0.1377E-04
  3007.33    0.1386E-04
  3009.65    0.1395E-04
  3011.98    0.1404E-04
  3014.30    0.1414E-04
  3016.63    0.1423E-04
  3018.95    0.1433E-04
  3021.27    0.1443E-04
  3023.60    0.1453E-04
  3025.92    0.1463E-04
  3028.24    0.1473E-04
  3030.57    0.1483E-04
  3032.89    0.1493E-04
  3035.22    0.1503E-04
  3037.54    0.1514E-04
  3039.86    0.1525E-04
  3042.19    0.1535E-04
  3044.51    0.1546E-04
  3046.84    0.1557E-04
  3049.16    0.1568E-04
  3051.48    0.1579E-04
  3053.81    0.1591E-04
  3056.13    0.1602E-04
  3058.45    0.1614E-04
  3060.78    0.1625E-04
  3063.10    0.1637E-04
  3065.43    0.1649E-04
  3067.75    0.1661E-04
  3070.07    0.1673E-04
  3072.40    0.1686E-04
  3074.72    0.1698E-04
  3077.05    0.1711E-04
  3079.37    0.1724E-04
  3081.69    0.1737E-04
  3084.02    0.1750E-04
  3086.34    0.1763E-04
  3088.66    0.1777E-04
  3090.99    0.1790E-04
  3093.31    0.1804E-04
  3095.64    0.1818E-04
  3097.96    0.1832E-04
  3100.28    0.1846E-04
  3102.61    0.1861E-04
  3104.93    0.1875E-04
  3107.26    0.1890E-04
  3109.58    0.1905E-04
  3111.90    0.1920E-04
  3114.23    0.1935E-04
  3116.55    0.1951E-04
  3118.87    0.1966E-04
  3121.20    0.1982E-04
  3123.52    0.1998E-04
  3125.85    0.2015E-04
  3128.17    0.2031E-04
  3130.49    0.2048E-04
  3132.82    0.2065E-04
  3135.14    0.2082E-04
  3137.47    0.2099E-04
  3139.79    0.2117E-04
  3142.11    0.2135E-04
  3144.44    0.2153E-04
  3146.76    0.2171E-04
  3149.08    0.2189E-04
  3151.41    0.2208E-04
  3153.73    0.2227E-04
  3156.06    0.2246E-04
  3158.38    0.2266E-04
  3160.70    0.2285E-04
  3163.03    0.2305E-04
  3165.35    0.2326E-04
  3167.68    0.2346E-04
  3170.00    0.2367E-04
  3172.32    0.2388E-04
  3174.65    0.2409E-04
  3176.97    0.2431E-04
  3179.29    0.2453E-04
  3181.62    0.2475E-04
  3183.94    0.2498E-04
  3186.27    0.2521E-04
  3188.59    0.2544E-04
  3190.91    0.2568E-04
  3193.24    0.2592E-04
  3195.56    0.2616E-04
  3197.89    0.2640E-04
  3200.21    0.2665E-04
  3202.53    0.2691E-04
  3204.86    0.2716E-04
  3207.18    0.2742E-04
  3209.50    0.2769E-04
  3211.83    0.2796E-04
  3214.15    0.2823E-04
  3216.48    0.2851E-04
  3218.80    0.2879E-04
  3221.12    0.2907E-04
  3223.45    0.2936E-04
  3225.77    0.2965E-04
  3228.10    0.2995E-04
  3230.42    0.3025E-04
  3232.74    0.3056E-04
  3235.07    0.3087E-04
  3237.39    0.3119E-04
  3239.71    0.3151E-04
  3242.04    0.3184E-04
  3244.36    0.3217E-04
  3246.69    0.3250E-04
  3249.01    0.3285E-04
  3251.33    0.3320E-04
  3253.66    0.3355E-04
  3255.98    0.3391E-04
  3258.31    0.3427E-04
  3260.63    0.3465E-04
  3262.95    0.3502E-04
  3265.28    0.3541E-04
  3267.60    0.3580E-04
  3269.92    0.3619E-04
  3272.25    0.3660E-04
  3274.57    0.3701E-04
  3276.90    0.3743E-04
  3279.22    0.3785E-04
  3281.54    0.3828E-04
  3283.87    0.3872E-04
  3286.19    0.3917E-04
  3288.52    0.3962E-04
  3290.84    0.4009E-04
  3293.16    0.4056E-04
  3295.49    0.4104E-04
  3297.81    0.4153E-04
  3300.13    0.4202E-04
  3302.46    0.4253E-04
  3304.78    0.4305E-04
  3307.11    0.4357E-04
  3309.43    0.4411E-04
  3311.75    0.4465E-04
  3314.08    0.4521E-04
  3316.40    0.4578E-04
  3318.73    0.4635E-04
  3321.05    0.4694E-04
  3323.37    0.4754E-04
  3325.70    0.4815E-04
  3328.02    0.4878E-04
  3330.34    0.4941E-04
  3332.67    0.5006E-04
  3334.99    0.5072E-04
  3337.32    0.5140E-04
  3339.64    0.5208E-04
  3341.96    0.5279E-04
  3344.29    0.5350E-04
  3346.61    0.5424E-04
  3348.94    0.5498E-04
  3351.26    0.5575E-04
  3353.58    0.5653E-04
  3355.91    0.5732E-04
  3358.23    0.5813E-04
  3360.55    0.5896E-04
  3362.88    0.5981E-04
  3365.20    0.6068E-04
  3367.53    0.6157E-04
  3369.85    0.6247E-04
  3372.17    0.6340E-04
  3374.50    0.6435E-04
  3376.82    0.6532E-04
  3379.15    0.6631E-04
  3381.47    0.6732E-04
  3383.79    0.6836E-04
  3386.12    0.6943E-04
  3388.44    0.7052E-04
  3390.76    0.7163E-04
  3393.09    0.7277E-04
  3395.41    0.7394E-04
  3397.74    0.7514E-04
  3400.06    0.7637E-04
  3402.38    0.7763E-04
  3404.71    0.7892E-04
  3407.03    0.8024E-04
  3409.36    0.8160E-04
  3411.68    0.8299E-04
  3414.00    0.8442E-04
  3416.33    0.8588E-04
  3418.65    0.8739E-04
  3420.97    0.8893E-04
  3423.30    0.9052E-04
  3425.62    0.9215E-04
  3427.95    0.9383E-04
  3430.27    0.9555E-04
  3432.59    0.9732E-04
  3434.92    0.9915E-04
  3437.24    0.1010E-03
  3439.56    0.1029E-03
  3441.89    0.1049E-03
  3444.21    0.1070E-03
  3446.54    0.1091E-03
  3448.86    0.1112E-03
  3451.18    0.1135E-03
  3453.51    0.1158E-03
  3455.83    0.1182E-03
  3458.16    0.1206E-03
  3460.48    0.1231E-03
  3462.80    0.1257E-03
  3465.13    0.1284E-03
  3467.45    0.1312E-03
  3469.77    0.1341E-03
  3472.10    0.1371E-03
  3474.42    0.1401E-03
  3476.75    0.1433E-03
  3479.07    0.1466E-03
  3481.39    0.1500E-03
  3483.72    0.1536E-03
  3486.04    0.1572E-03
  3488.37    0.1610E-03
  3490.69    0.1649E-03
  3493.01    0.1690E-03
  3495.34    0.1732E-03
  3497.66    0.1776E-03
  3499.98    0.1822E-03
  3502.31    0.1870E-03
  3504.63    0.1919E-03
  3506.96    0.1970E-03
  3509.28    0.2024E-03
  3511.60    0.2080E-03
  3513.93    0.2138E-03
  3516.25    0.2199E-03
  3518.58    0.2262E-03
  3520.90    0.2328E-03
  3523.22    0.2397E-03
  3525.55    0.2470E-03
  3527.87    0.2545E-03
  3530.19    0.2625E-03
  3532.52    0.2708E-03
  3534.84    0.2795E-03
  3537.17    0.2887E-03
  3539.49    0.2983E-03
  3541.81    0.3084E-03
  3544.14    0.3190E-03
  3546.46    0.3302E-03
  3548.79    0.3421E-03
  3551.11    0.3546E-03
  3553.43    0.3677E-03
  3555.76    0.3817E-03
  3558.08    0.3965E-03
  3560.40    0.4121E-03
  3562.73    0.4287E-03
  3565.05    0.4464E-03
  3567.38    0.4652E-03
  3569.70    0.4852E-03
  3572.02    0.5066E-03
  3574.35    0.5294E-03
  3576.67    0.5538E-03
  3579.00    0.5800E-03
  3581.32    0.6081E-03
  3583.64    0.6383E-03
  3585.97    0.6709E-03
  3588.29    0.7061E-03
  3590.61    0.7441E-03
  3592.94    0.7853E-03
  3595.26    0.8302E-03
  3597.59    0.8789E-03
  3599.91    0.9322E-03
  3602.23    0.9906E-03
  3604.56    0.1055E-02
  3606.88    0.1125E-02
  3609.21    0.1203E-02
  3611.53    0.1289E-02
  3613.85    0.1385E-02
  3616.18    0.1493E-02
  3618.50    0.1613E-02
  3620.82    0.1748E-02
  3623.15    0.1902E-02
  3625.47    0.2076E-02
  3627.80    0.2275E-02
  3630.12    0.2505E-02
  3632.44    0.2771E-02
  3634.77    0.3081E-02
  3637.09    0.3445E-02
  3639.42    0.3877E-02
  3641.74    0.4394E-02
  3644.06    0.5018E-02
  3646.39    0.5781E-02
  3648.71    0.6724E-02
  3651.03    0.7903E-02
  3653.36    0.9397E-02
  3655.68    0.1132E-01
  3658.01    0.1381E-01
  3660.33    0.1709E-01
  3662.65    0.2138E-01
  3664.98    0.2694E-01
  3667.30    0.3377E-01
  3669.63    0.4128E-01
  3671.95    0.4768E-01
  3674.27    0.5034E-01
  3676.60    0.4786E-01
  3678.92    0.4155E-01
  3681.24    0.3406E-01
  3683.57    0.2719E-01
  3685.89    0.2160E-01
  3688.22    0.1727E-01
  3690.54    0.1398E-01
  3692.86    0.1147E-01
  3695.19    0.9545E-02
  3697.51    0.8049E-02
  3699.84    0.6873E-02
  3702.16    0.5936E-02
  3704.48    0.5182E-02
  3706.81    0.4568E-02
  3709.13    0.4063E-02
  3711.45    0.3645E-02
  3713.78    0.3296E-02
  3716.10    0.3004E-02
  3718.43    0.2758E-02
  3720.75    0.2550E-02
  3723.07    0.2375E-02
  3725.40    0.2228E-02
  3727.72    0.2105E-02
  3730.05    0.2004E-02
  3732.37    0.1922E-02
  3734.69    0.1857E-02
  3737.02    0.1810E-02
  3739.34    0.1779E-02
  3741.66    0.1766E-02
  3743.99    0.1769E-02
  3746.31    0.1791E-02
  3748.64    0.1833E-02
  3750.96    0.1899E-02
  3753.28    0.1993E-02
  3755.61    0.2120E-02
  3757.93    0.2288E-02
  3760.26    0.2507E-02
  3762.58    0.2794E-02
  3764.90    0.3169E-02
  3767.23    0.3660E-02
  3769.55    0.4309E-02
  3771.87    0.5169E-02
  3774.20    0.6309E-02
  3776.52    0.7798E-02
  3778.85    0.9660E-02
  3781.17    0.1176E-01
  3783.49    0.1365E-01
  3785.82    0.1461E-01
  3788.14    0.1412E-01
  3790.47    0.1244E-01
  3792.79    0.1031E-01
  3795.11    0.8303E-02
  3797.44    0.6643E-02
  3799.76    0.5349E-02
  3802.08    0.4359E-02
  3804.41    0.3604E-02
  3806.73    0.3022E-02
  3809.06    0.2568E-02
  3811.38    0.2210E-02
  3813.70    0.1923E-02
  3816.03    0.1690E-02
  3818.35    0.1499E-02
  3820.68    0.1340E-02
  3823.00    0.1207E-02
  3825.32    0.1094E-02
  3827.65    0.9971E-03
  3829.97    0.9137E-03
  3832.29    0.8413E-03
  3834.62    0.7779E-03
  3836.94    0.7222E-03
  3839.27    0.6728E-03
  3841.59    0.6288E-03
  3843.91    0.5895E-03
  3846.24    0.5541E-03
  3848.56    0.5222E-03
