
 ------------------------------------------------------------
     normal          Raman Scattering Plot
 ------------------------------------------------------------
 Excitation wavelength  514.50 nm
 Convolution lineshape is lorentzian  
 FWHM   20.00  1/cm
 ------------------------------------------------------------
 ------------------------------------------------------------
 # of frequencies :     3
 ------------------------------------------------------------
 #  freq [ 1/cm]  S [Ang**4/amu]
 ------------------------------------------------------------
   1  1591.50        0.8354
   2  3680.21      115.5964
   3  3783.86       28.4166
 ------------------------------------------------------------
  1533.82    0.2982E-04
  1536.13    0.3221E-04
  1538.45    0.3490E-04
  1540.76    0.3796E-04
  1543.08    0.4143E-04
  1545.39    0.4541E-04
  1547.71    0.5000E-04
  1550.02    0.5532E-04
  1552.34    0.6153E-04
  1554.65    0.6884E-04
  1556.96    0.7752E-04
  1559.28    0.8791E-04
  1561.59    0.1005E-03
  1563.91    0.1159E-03
  1566.22    0.1349E-03
  1568.54    0.1587E-03
  1570.85    0.1890E-03
  1573.17    0.2279E-03
  1575.48    0.2785E-03
  1577.80    0.3448E-03
  1580.11    0.4317E-03
  1582.43    0.5436E-03
  1584.74    0.6801E-03
  1587.06    0.8273E-03
  1589.37    0.9477E-03
  1591.68    0.9904E-03
  1594.00    0.9327E-03
  1596.31    0.8047E-03
  1598.63    0.6575E-03
  1600.94    0.5244E-03
  1603.26    0.4166E-03
  1605.57    0.3332E-03
  1607.89    0.2696E-03
  1610.20    0.2211E-03
  1612.52    0.1838E-03
  1614.83    0.1547E-03
  1617.15    0.1317E-03
  1619.46    0.1133E-03
  1621.78    0.9841E-04
  1624.09    0.8621E-04
  1626.41    0.7612E-04
  1628.72    0.6768E-04
  1631.03    0.6056E-04
  1633.35    0.5451E-04
  1635.66    0.4932E-04
  1637.98    0.4484E-04
  1640.29    0.4095E-04
  1642.61    0.3755E-04
  1644.92    0.3456E-04
  1647.24    0.3192E-04
  1649.55    0.2958E-04
  1651.87    0.2750E-04
  1654.18    0.2563E-04
  1656.50    0.2395E-04
  1658.81    0.2244E-04
  1661.13    0.2107E-04
  1663.44    0.1983E-04
  1665.75    0.1871E-04
  1668.07    0.1768E-04
  1670.38    0.1673E-04
  1672.70    0.1587E-04
  1675.01    0.1507E-04
  1677.33    0.1434E-04
  1679.64    0.1367E-04
  1681.96    0.1304E-04
  1684.27    0.1246E-04
  1686.59    0.1192E-04
  1688.90    0.1142E-04
  1691.22    0.1096E-04
  1693.53    0.1052E-04
  1695.85    0.1011E-04
  1698.16    0.9733E-05
  1700.47    0.9376E-05
  1702.79    0.9041E-05
  1705.10    0.8727E-05
  1707.42    0.8431E-05
  1709.73    0.8152E-05
  1712.05    0.7889E-05
  1714.36    0.7640E-05
  1716.68    0.7406E-05
  1718.99    0.7184E-05
  1721.31    0.6974E-05
  1723.62    0.6775E-05
  1725.94    0.6586E-05
  1728.25    0.6407E-05
  1730.57    0.6237E-05
  1732.88    0.6075E-05
  1735.19    0.5921E-05
  1737.51    0.5774E-05
  1739.82    0.5635E-05
  1742.14    0.5502E-05
  1744.45    0.5374E-05
  1746.77    0.5253E-05
  1749.08    0.5137E-05
  1751.40    0.5026E-05
  1753.71    0.4920E-05
  1756.03    0.4819E-05
  1758.34    0.4721E-05
  1760.66    0.4628E-05
  1762.97    0.4539E-05
  1765.29    0.4453E-05
  1767.60    0.4371E-05
  1769.91    0.4292E-05
  1772.23    0.4216E-05
  1774.54    0.4144E-05
  1776.86    0.4074E-05
  1779.17    0.4006E-05
  1781.49    0.3941E-05
  1783.80    0.3879E-05
  1786.12    0.3819E-05
  1788.43    0.3761E-05
  1790.75    0.3706E-05
  1793.06    0.3652E-05
  1795.38    0.3600E-05
  1797.69    0.3550E-05
  1800.01    0.3502E-05
  1802.32    0.3456E-05
  1804.63    0.3411E-05
  1806.95    0.3367E-05
  1809.26    0.3325E-05
  1811.58    0.3285E-05
  1813.89    0.3246E-05
  1816.21    0.3208E-05
  1818.52    0.3172E-05
  1820.84    0.3136E-05
  1823.15    0.3102E-05
  1825.47    0.3069E-05
  1827.78    0.3037E-05
  1830.10    0.3006E-05
  1832.41    0.2976E-05
  1834.73    0.2947E-05
  1837.04    0.2919E-05
  1839.35    0.2892E-05
  1841.67    0.2865E-05
  1843.98    0.2840E-05
  1846.30    0.2815E-05
  1848.61    0.2791E-05
  1850.93    0.2768E-05
  1853.24    0.2745E-05
  1855.56    0.2723E-05
  1857.87    0.2702E-05
  1860.19    0.2682E-05
  1862.50    0.2662E-05
  1864.82    0.2642E-05
  1867.13    0.2624E-05
  1869.45    0.2605E-05
  1871.76    0.2588E-05
  1874.07    0.2571E-05
  1876.39    0.2554E-05
  1878.70    0.2538E-05
  1881.02    0.2522E-05
  1883.33    0.2507E-05
  1885.65    0.2492E-05
  1887.96    0.2478E-05
  1890.28    0.2464E-05
  1892.59    0.2451E-05
  1894.91    0.2438E-05
  1897.22    0.2425E-05
  1899.54    0.2413E-05
  1901.85    0.2401E-05
  1904.17    0.2389E-05
  1906.48    0.2378E-05
  1908.79    0.2367E-05
  1911.11    0.2356E-05
  1913.42    0.2346E-05
  1915.74    0.2336E-05
  1918.05    0.2327E-05
  1920.37    0.2317E-05
  1922.68    0.2308E-05
  1925.00    0.2299E-05
  1927.31    0.2291E-05
  1929.63    0.2283E-05
  1931.94    0.2275E-05
  1934.26    0.2267E-05
  1936.57    0.2259E-05
  1938.89    0.2252E-05
  1941.20    0.2245E-05
  1943.51    0.2238E-05
  1945.83    0.2232E-05
  1948.14    0.2225E-05
  1950.46    0.2219E-05
  1952.77    0.2213E-05
  1955.09    0.2208E-05
  1957.40    0.2202E-05
  1959.72    0.2197E-05
  1962.03    0.2191E-05
  1964.35    0.2186E-05
  1966.66    0.2182E-05
  1968.98    0.2177E-05
  1971.29    0.2173E-05
  1973.61    0.2168E-05
  1975.92    0.2164E-05
  1978.23    0.2160E-05
  1980.55    0.2156E-05
  1982.86    0.2153E-05
  1985.18    0.2149E-05
  1987.49    0.2146E-05
  1989.81    0.2143E-05
  1992.12    0.2140E-05
  1994.44    0.2137E-05
  1996.75    0.2134E-05
  1999.07    0.2131E-05
  2001.38    0.2129E-05
  2003.70    0.2127E-05
  2006.01    0.2124E-05
  2008.33    0.2122E-05
  2010.64    0.2120E-05
  2012.95    0.2118E-05
  2015.27    0.2117E-05
  2017.58    0.2115E-05
  2019.90    0.2113E-05
  2022.21    0.2112E-05
  2024.53    0.2111E-05
  2026.84    0.2109E-05
  2029.16    0.2108E-05
  2031.47    0.2107E-05
  2033.79    0.2106E-05
  2036.10    0.2106E-05
  2038.42    0.2105E-05
  2040.73    0.2104E-05
  2043.05    0.2104E-05
  2045.36    0.2104E-05
  2047.67    0.2103E-05
  2049.99    0.2103E-05
  2052.30    0.2103E-05
  2054.62    0.2103E-05
  2056.93    0.2103E-05
  2059.25    0.2103E-05
  2061.56    0.2103E-05
  2063.88    0.2104E-05
  2066.19    0.2104E-05
  2068.51    0.2105E-05
  2070.82    0.2105E-05
  2073.14    0.2106E-05
  2075.45    0.2106E-05
  2077.77    0.2107E-05
  2080.08    0.2108E-05
  2082.39    0.2109E-05
  2084.71    0.2110E-05
  2087.02    0.2111E-05
  2089.34    0.2112E-05
  2091.65    0.2114E-05
  2093.97    0.2115E-05
  2096.28    0.2116E-05
  2098.60    0.2118E-05
  2100.91    0.2119E-05
  2103.23    0.2121E-05
  2105.54    0.2123E-05
  2107.86    0.2125E-05
  2110.17    0.2126E-05
  2112.49    0.2128E-05
  2114.80    0.2130E-05
  2117.12    0.2132E-05
  2119.43    0.2134E-05
  2121.74    0.2136E-05
  2124.06    0.2139E-05
  2126.37    0.2141E-05
  2128.69    0.2143E-05
  2131.00    0.2146E-05
  2133.32    0.2148E-05
  2135.63    0.2151E-05
  2137.95    0.2153E-05
  2140.26    0.2156E-05
  2142.58    0.2158E-05
  2144.89    0.2161E-05
  2147.21    0.2164E-05
  2149.52    0.2167E-05
  2151.84    0.2170E-05
  2154.15    0.2173E-05
  2156.46    0.2176E-05
  2158.78    0.2179E-05
  2161.09    0.2182E-05
  2163.41    0.2185E-05
  2165.72    0.2189E-05
  2168.04    0.2192E-05
  2170.35    0.2195E-05
  2172.67    0.2199E-05
  2174.98    0.2202E-05
  2177.30    0.2206E-05
  2179.61    0.2209E-05
  2181.93    0.2213E-05
  2184.24    0.2217E-05
  2186.56    0.2220E-05
  2188.87    0.2224E-05
  2191.18    0.2228E-05
  2193.50    0.2232E-05
  2195.81    0.2236E-05
  2198.13    0.2240E-05
  2200.44    0.2244E-05
  2202.76    0.2248E-05
  2205.07    0.2252E-05
  2207.39    0.2256E-05
  2209.70    0.2261E-05
  2212.02    0.2265E-05
  2214.33    0.2269E-05
  2216.65    0.2274E-05
  2218.96    0.2278E-05
  2221.28    0.2283E-05
  2223.59    0.2287E-05
  2225.90    0.2292E-05
  2228.22    0.2297E-05
  2230.53    0.2301E-05
  2232.85    0.2306E-05
  2235.16    0.2311E-05
  2237.48    0.2316E-05
  2239.79    0.2321E-05
  2242.11    0.2326E-05
  2244.42    0.2331E-05
  2246.74    0.2336E-05
  2249.05    0.2341E-05
  2251.37    0.2346E-05
  2253.68    0.2351E-05
  2256.00    0.2357E-05
  2258.31    0.2362E-05
  2260.62    0.2367E-05
  2262.94    0.2373E-05
  2265.25    0.2378E-05
  2267.57    0.2384E-05
  2269.88    0.2389E-05
  2272.20    0.2395E-05
  2274.51    0.2401E-05
  2276.83    0.2406E-05
  2279.14    0.2412E-05
  2281.46    0.2418E-05
  2283.77    0.2424E-05
  2286.09    0.2430E-05
  2288.40    0.2436E-05
  2290.72    0.2442E-05
  2293.03    0.2448E-05
  2295.34    0.2454E-05
  2297.66    0.2460E-05
  2299.97    0.2466E-05
  2302.29    0.2472E-05
  2304.60    0.2479E-05
  2306.92    0.2485E-05
  2309.23    0.2491E-05
  2311.55    0.2498E-05
  2313.86    0.2504E-05
  2316.18    0.2511E-05
  2318.49    0.2518E-05
  2320.81    0.2524E-05
  2323.12    0.2531E-05
  2325.44    0.2538E-05
  2327.75    0.2544E-05
  2330.06    0.2551E-05
  2332.38    0.2558E-05
  2334.69    0.2565E-05
  2337.01    0.2572E-05
  2339.32    0.2579E-05
  2341.64    0.2586E-05
  2343.95    0.2594E-05
  2346.27    0.2601E-05
  2348.58    0.2608E-05
  2350.90    0.2615E-05
  2353.21    0.2623E-05
  2355.53    0.2630E-05
  2357.84    0.2638E-05
  2360.16    0.2645E-05
  2362.47    0.2653E-05
  2364.78    0.2661E-05
  2367.10    0.2668E-05
  2369.41    0.2676E-05
  2371.73    0.2684E-05
  2374.04    0.2692E-05
  2376.36    0.2700E-05
  2378.67    0.2708E-05
  2380.99    0.2716E-05
  2383.30    0.2724E-05
  2385.62    0.2732E-05
  2387.93    0.2740E-05
  2390.25    0.2748E-05
  2392.56    0.2757E-05
  2394.88    0.2765E-05
  2397.19    0.2774E-05
  2399.50    0.2782E-05
  2401.82    0.2791E-05
  2404.13    0.2799E-05
  2406.45    0.2808E-05
  2408.76    0.2817E-05
  2411.08    0.2825E-05
  2413.39    0.2834E-05
  2415.71    0.2843E-05
  2418.02    0.2852E-05
  2420.34    0.2861E-05
  2422.65    0.2870E-05
  2424.97    0.2879E-05
  2427.28    0.2889E-05
  2429.60    0.2898E-05
  2431.91    0.2907E-05
  2434.22    0.2917E-05
  2436.54    0.2926E-05
  2438.85    0.2936E-05
  2441.17    0.2945E-05
  2443.48    0.2955E-05
  2445.80    0.2964E-05
  2448.11    0.2974E-05
  2450.43    0.2984E-05
  2452.74    0.2994E-05
  2455.06    0.3004E-05
  2457.37    0.3014E-05
  2459.69    0.3024E-05
  2462.00    0.3034E-05
  2464.32    0.3044E-05
  2466.63    0.3055E-05
  2468.94    0.3065E-05
  2471.26    0.3076E-05
  2473.57    0.3086E-05
  2475.89    0.3097E-05
  2478.20    0.3107E-05
  2480.52    0.3118E-05
  2482.83    0.3129E-05
  2485.15    0.3140E-05
  2487.46    0.3151E-05
  2489.78    0.3162E-05
  2492.09    0.3173E-05
  2494.41    0.3184E-05
  2496.72    0.3195E-05
  2499.04    0.3206E-05
  2501.35    0.3218E-05
  2503.66    0.3229E-05
  2505.98    0.3240E-05
  2508.29    0.3252E-05
  2510.61    0.3264E-05
  2512.92    0.3275E-05
  2515.24    0.3287E-05
  2517.55    0.3299E-05
  2519.87    0.3311E-05
  2522.18    0.3323E-05
  2524.50    0.3335E-05
  2526.81    0.3348E-05
  2529.13    0.3360E-05
  2531.44    0.3372E-05
  2533.76    0.3385E-05
  2536.07    0.3397E-05
  2538.38    0.3410E-05
  2540.70    0.3422E-05
  2543.01    0.3435E-05
  2545.33    0.3448E-05
  2547.64    0.3461E-05
  2549.96    0.3474E-05
  2552.27    0.3487E-05
  2554.59    0.3500E-05
  2556.90    0.3514E-05
  2559.22    0.3527E-05
  2561.53    0.3541E-05
  2563.85    0.3554E-05
  2566.16    0.3568E-05
  2568.48    0.3582E-05
  2570.79    0.3595E-05
  2573.10    0.3609E-05
  2575.42    0.3623E-05
  2577.73    0.3637E-05
  2580.05    0.3652E-05
  2582.36    0.3666E-05
  2584.68    0.3680E-05
  2586.99    0.3695E-05
  2589.31    0.3709E-05
  2591.62    0.3724E-05
  2593.94    0.3739E-05
  2596.25    0.3754E-05
  2598.57    0.3769E-05
  2600.88    0.3784E-05
  2603.20    0.3799E-05
  2605.51    0.3814E-05
  2607.83    0.3830E-05
  2610.14    0.3845E-05
  2612.45    0.3861E-05
  2614.77    0.3877E-05
  2617.08    0.3892E-05
  2619.40    0.3908E-05
  2621.71    0.3924E-05
  2624.03    0.3941E-05
  2626.34    0.3957E-05
  2628.66    0.3973E-05
  2630.97    0.3990E-05
  2633.29    0.4006E-05
  2635.60    0.4023E-05
  2637.92    0.4040E-05
  2640.23    0.4057E-05
  2642.55    0.4074E-05
  2644.86    0.4091E-05
  2647.17    0.4108E-05
  2649.49    0.4126E-05
  2651.80    0.4143E-05
  2654.12    0.4161E-05
  2656.43    0.4179E-05
  2658.75    0.4197E-05
  2661.06    0.4215E-05
  2663.38    0.4233E-05
  2665.69    0.4251E-05
  2668.01    0.4269E-05
  2670.32    0.4288E-05
  2672.64    0.4307E-05
  2674.95    0.4325E-05
  2677.27    0.4344E-05
  2679.58    0.4363E-05
  2681.89    0.4383E-05
  2684.21    0.4402E-05
  2686.52    0.4422E-05
  2688.84    0.4441E-05
  2691.15    0.4461E-05
  2693.47    0.4481E-05
  2695.78    0.4501E-05
  2698.10    0.4521E-05
  2700.41    0.4541E-05
  2702.73    0.4562E-05
  2705.04    0.4583E-05
  2707.36    0.4603E-05
  2709.67    0.4624E-05
  2711.99    0.4645E-05
  2714.30    0.4667E-05
  2716.61    0.4688E-05
  2718.93    0.4710E-05
  2721.24    0.4731E-05
  2723.56    0.4753E-05
  2725.87    0.4775E-05
  2728.19    0.4797E-05
  2730.50    0.4820E-05
  2732.82    0.4842E-05
  2735.13    0.4865E-05
  2737.45    0.4888E-05
  2739.76    0.4911E-05
  2742.08    0.4934E-05
  2744.39    0.4957E-05
  2746.71    0.4981E-05
  2749.02    0.5005E-05
  2751.33    0.5029E-05
  2753.65    0.5053E-05
  2755.96    0.5077E-05
  2758.28    0.5102E-05
  2760.59    0.5126E-05
  2762.91    0.5151E-05
  2765.22    0.5176E-05
  2767.54    0.5201E-05
  2769.85    0.5227E-05
  2772.17    0.5252E-05
  2774.48    0.5278E-05
  2776.80    0.5304E-05
  2779.11    0.5330E-05
  2781.43    0.5357E-05
  2783.74    0.5383E-05
  2786.05    0.5410E-05
  2788.37    0.5437E-05
  2790.68    0.5464E-05
  2793.00    0.5492E-05
  2795.31    0.5520E-05
  2797.63    0.5547E-05
  2799.94    0.5576E-05
  2802.26    0.5604E-05
  2804.57    0.5632E-05
  2806.89    0.5661E-05
  2809.20    0.5690E-05
  2811.52    0.5720E-05
  2813.83    0.5749E-05
  2816.15    0.5779E-05
  2818.46    0.5809E-05
  2820.77    0.5839E-05
  2823.09    0.5869E-05
  2825.40    0.5900E-05
  2827.72    0.5931E-05
  2830.03    0.5962E-05
  2832.35    0.5994E-05
  2834.66    0.6025E-05
  2836.98    0.6057E-05
  2839.29    0.6090E-05
  2841.61    0.6122E-05
  2843.92    0.6155E-05
  2846.24    0.6188E-05
  2848.55    0.6221E-05
  2850.87    0.6255E-05
  2853.18    0.6289E-05
  2855.49    0.6323E-05
  2857.81    0.6357E-05
  2860.12    0.6392E-05
  2862.44    0.6427E-05
  2864.75    0.6462E-05
  2867.07    0.6498E-05
  2869.38    0.6534E-05
  2871.70    0.6570E-05
  2874.01    0.6607E-05
  2876.33    0.6644E-05
  2878.64    0.6681E-05
  2880.96    0.6718E-05
  2883.27    0.6756E-05
  2885.59    0.6794E-05
  2887.90    0.6833E-05
  2890.21    0.6872E-05
  2892.53    0.6911E-05
  2894.84    0.6950E-05
  2897.16    0.6990E-05
  2899.47    0.7030E-05
  2901.79    0.7071E-05
  2904.10    0.7112E-05
  2906.42    0.7153E-05
  2908.73    0.7195E-05
  2911.05    0.7237E-05
  2913.36    0.7279E-05
  2915.68    0.7322E-05
  2917.99    0.7365E-05
  2920.31    0.7409E-05
  2922.62    0.7453E-05
  2924.93    0.7497E-05
  2927.25    0.7542E-05
  2929.56    0.7587E-05
  2931.88    0.7633E-05
  2934.19    0.7679E-05
  2936.51    0.7725E-05
  2938.82    0.7772E-05
  2941.14    0.7819E-05
  2943.45    0.7867E-05
  2945.77    0.7915E-05
  2948.08    0.7964E-05
  2950.40    0.8013E-05
  2952.71    0.8063E-05
  2955.03    0.8113E-05
  2957.34    0.8163E-05
  2959.65    0.8214E-05
  2961.97    0.8266E-05
  2964.28    0.8318E-05
  2966.60    0.8370E-05
  2968.91    0.8423E-05
  2971.23    0.8477E-05
  2973.54    0.8531E-05
  2975.86    0.8585E-05
  2978.17    0.8640E-05
  2980.49    0.8696E-05
  2982.80    0.8752E-05
  2985.12    0.8809E-05
  2987.43    0.8866E-05
  2989.75    0.8924E-05
  2992.06    0.8982E-05
  2994.37    0.9041E-05
  2996.69    0.9101E-05
  2999.00    0.9161E-05
  3001.32    0.9222E-05
  3003.63    0.9284E-05
  3005.95    0.9346E-05
  3008.26    0.9408E-05
  3010.58    0.9472E-05
  3012.89    0.9536E-05
  3015.21    0.9600E-05
  3017.52    0.9666E-05
  3019.84    0.9732E-05
  3022.15    0.9798E-05
  3024.47    0.9866E-05
  3026.78    0.9934E-05
  3029.09    0.1000E-04
  3031.41    0.1007E-04
  3033.72    0.1014E-04
  3036.04    0.1021E-04
  3038.35    0.1029E-04
  3040.67    0.1036E-04
  3042.98    0.1043E-04
  3045.30    0.1051E-04
  3047.61    0.1058E-04
  3049.93    0.1066E-04
  3052.24    0.1073E-04
  3054.56    0.1081E-04
  3056.87    0.1089E-04
  3059.19    0.1097E-04
  3061.50    0.1105E-04
  3063.81    0.1113E-04
  3066.13    0.1121E-04
  3068.44    0.1129E-04
  3070.76    0.1138E-04
  3073.07    0.1146E-04
  3075.39    0.1155E-04
  3077.70    0.1163E-04
  3080.02    0.1172E-04
  3082.33    0.1181E-04
  3084.65    0.1190E-04
  3086.96    0.1199E-04
  3089.28    0.1208E-04
  3091.59    0.1217E-04
  3093.91    0.1227E-04
  3096.22    0.1236E-04
  3098.54    0.1246E-04
  3100.85    0.1255E-04
  3103.16    0.1265E-04
  3105.48    0.1275E-04
  3107.79    0.1285E-04
  3110.11    0.1295E-04
  3112.42    0.1306E-04
  3114.74    0.1316E-04
  3117.05    0.1327E-04
  3119.37    0.1337E-04
  3121.68    0.1348E-04
  3124.00    0.1359E-04
  3126.31    0.1370E-04
  3128.63    0.1381E-04
  3130.94    0.1393E-04
  3133.26    0.1404E-04
  3135.57    0.1416E-04
  3137.88    0.1428E-04
  3140.20    0.1440E-04
  3142.51    0.1452E-04
  3144.83    0.1464E-04
  3147.14    0.1476E-04
  3149.46    0.1489E-04
  3151.77    0.1502E-04
  3154.09    0.1515E-04
  3156.40    0.1528E-04
  3158.72    0.1541E-04
  3161.03    0.1554E-04
  3163.35    0.1568E-04
  3165.66    0.1582E-04
  3167.98    0.1595E-04
  3170.29    0.1610E-04
  3172.60    0.1624E-04
  3174.92    0.1638E-04
  3177.23    0.1653E-04
  3179.55    0.1668E-04
  3181.86    0.1683E-04
  3184.18    0.1698E-04
  3186.49    0.1714E-04
  3188.81    0.1730E-04
  3191.12    0.1746E-04
  3193.44    0.1762E-04
  3195.75    0.1778E-04
  3198.07    0.1795E-04
  3200.38    0.1812E-04
  3202.70    0.1829E-04
  3205.01    0.1846E-04
  3207.32    0.1864E-04
  3209.64    0.1882E-04
  3211.95    0.1900E-04
  3214.27    0.1918E-04
  3216.58    0.1937E-04
  3218.90    0.1956E-04
  3221.21    0.1975E-04
  3223.53    0.1995E-04
  3225.84    0.2015E-04
  3228.16    0.2035E-04
  3230.47    0.2055E-04
  3232.79    0.2076E-04
  3235.10    0.2097E-04
  3237.42    0.2118E-04
  3239.73    0.2140E-04
  3242.04    0.2162E-04
  3244.36    0.2184E-04
  3246.67    0.2207E-04
  3248.99    0.2230E-04
  3251.30    0.2254E-04
  3253.62    0.2277E-04
  3255.93    0.2302E-04
  3258.25    0.2326E-04
  3260.56    0.2351E-04
  3262.88    0.2377E-04
  3265.19    0.2402E-04
  3267.51    0.2429E-04
  3269.82    0.2455E-04
  3272.14    0.2483E-04
  3274.45    0.2510E-04
  3276.76    0.2538E-04
  3279.08    0.2567E-04
  3281.39    0.2596E-04
  3283.71    0.2625E-04
  3286.02    0.2655E-04
  3288.34    0.2686E-04
  3290.65    0.2717E-04
  3292.97    0.2749E-04
  3295.28    0.2781E-04
  3297.60    0.2814E-04
  3299.91    0.2847E-04
  3302.23    0.2881E-04
  3304.54    0.2915E-04
  3306.86    0.2951E-04
  3309.17    0.2986E-04
  3311.48    0.3023E-04
  3313.80    0.3060E-04
  3316.11    0.3098E-04
  3318.43    0.3137E-04
  3320.74    0.3176E-04
  3323.06    0.3216E-04
  3325.37    0.3257E-04
  3327.69    0.3298E-04
  3330.00    0.3341E-04
  3332.32    0.3384E-04
  3334.63    0.3428E-04
  3336.95    0.3473E-04
  3339.26    0.3519E-04
  3341.58    0.3566E-04
  3343.89    0.3614E-04
  3346.20    0.3662E-04
  3348.52    0.3712E-04
  3350.83    0.3763E-04
  3353.15    0.3815E-04
  3355.46    0.3868E-04
  3357.78    0.3922E-04
  3360.09    0.3977E-04
  3362.41    0.4033E-04
  3364.72    0.4091E-04
  3367.04    0.4150E-04
  3369.35    0.4210E-04
  3371.67    0.4271E-04
  3373.98    0.4334E-04
  3376.30    0.4398E-04
  3378.61    0.4464E-04
  3380.92    0.4531E-04
  3383.24    0.4600E-04
  3385.55    0.4670E-04
  3387.87    0.4742E-04
  3390.18    0.4815E-04
  3392.50    0.4891E-04
  3394.81    0.4968E-04
  3397.13    0.5047E-04
  3399.44    0.5128E-04
  3401.76    0.5211E-04
  3404.07    0.5296E-04
  3406.39    0.5383E-04
  3408.70    0.5472E-04
  3411.02    0.5563E-04
  3413.33    0.5657E-04
  3415.64    0.5753E-04
  3417.96    0.5852E-04
  3420.27    0.5953E-04
  3422.59    0.6057E-04
  3424.90    0.6164E-04
  3427.22    0.6273E-04
  3429.53    0.6386E-04
  3431.85    0.6502E-04
  3434.16    0.6620E-04
  3436.48    0.6743E-04
  3438.79    0.6868E-04
  3441.11    0.6997E-04
  3443.42    0.7130E-04
  3445.74    0.7267E-04
  3448.05    0.7408E-04
  3450.36    0.7553E-04
  3452.68    0.7702E-04
  3454.99    0.7856E-04
  3457.31    0.8014E-04
  3459.62    0.8178E-04
  3461.94    0.8346E-04
  3464.25    0.8520E-04
  3466.57    0.8699E-04
  3468.88    0.8884E-04
  3471.20    0.9076E-04
  3473.51    0.9273E-04
  3475.83    0.9477E-04
  3478.14    0.9688E-04
  3480.46    0.9906E-04
  3482.77    0.1013E-03
  3485.08    0.1036E-03
  3487.40    0.1061E-03
  3489.71    0.1086E-03
  3492.03    0.1112E-03
  3494.34    0.1139E-03
  3496.66    0.1166E-03
  3498.97    0.1195E-03
  3501.29    0.1225E-03
  3503.60    0.1257E-03
  3505.92    0.1289E-03
  3508.23    0.1323E-03
  3510.55    0.1358E-03
  3512.86    0.1394E-03
  3515.18    0.1432E-03
  3517.49    0.1472E-03
  3519.80    0.1513E-03
  3522.12    0.1556E-03
  3524.43    0.1601E-03
  3526.75    0.1648E-03
  3529.06    0.1697E-03
  3531.38    0.1748E-03
  3533.69    0.1802E-03
  3536.01    0.1858E-03
  3538.32    0.1917E-03
  3540.64    0.1979E-03
  3542.95    0.2044E-03
  3545.27    0.2112E-03
  3547.58    0.2184E-03
  3549.90    0.2259E-03
  3552.21    0.2339E-03
  3554.52    0.2422E-03
  3556.84    0.2511E-03
  3559.15    0.2604E-03
  3561.47    0.2703E-03
  3563.78    0.2808E-03
  3566.10    0.2918E-03
  3568.41    0.3036E-03
  3570.73    0.3161E-03
  3573.04    0.3294E-03
  3575.36    0.3435E-03
  3577.67    0.3586E-03
  3579.99    0.3748E-03
  3582.30    0.3920E-03
  3584.62    0.4105E-03
  3586.93    0.4304E-03
  3589.25    0.4517E-03
  3591.56    0.4747E-03
  3593.87    0.4994E-03
  3596.19    0.5263E-03
  3598.50    0.5553E-03
  3600.82    0.5868E-03
  3603.13    0.6212E-03
  3605.45    0.6586E-03
  3607.76    0.6996E-03
  3610.08    0.7445E-03
  3612.39    0.7940E-03
  3614.71    0.8486E-03
  3617.02    0.9090E-03
  3619.34    0.9762E-03
  3621.65    0.1051E-02
  3623.97    0.1135E-02
  3626.28    0.1229E-02
  3628.59    0.1336E-02
  3630.91    0.1457E-02
  3633.22    0.1596E-02
  3635.54    0.1755E-02
  3637.85    0.1939E-02
  3640.17    0.2152E-02
  3642.48    0.2403E-02
  3644.80    0.2700E-02
  3647.11    0.3054E-02
  3649.43    0.3480E-02
  3651.74    0.3999E-02
  3654.06    0.4638E-02
  3656.37    0.5434E-02
  3658.69    0.6440E-02
  3661.00    0.7725E-02
  3663.31    0.9390E-02
  3665.63    0.1157E-01
  3667.94    0.1443E-01
  3670.26    0.1814E-01
  3672.57    0.2279E-01
  3674.89    0.2810E-01
  3677.20    0.3307E-01
  3679.52    0.3588E-01
  3681.83    0.3514E-01
  3684.15    0.3124E-01
  3686.46    0.2596E-01
  3688.78    0.2085E-01
  3691.09    0.1657E-01
  3693.41    0.1323E-01
  3695.72    0.1067E-01
  3698.03    0.8726E-02
  3700.35    0.7235E-02
  3702.66    0.6080E-02
  3704.98    0.5175E-02
  3707.29    0.4457E-02
  3709.61    0.3881E-02
  3711.92    0.3413E-02
  3714.24    0.3030E-02
  3716.55    0.2713E-02
  3718.87    0.2450E-02
  3721.18    0.2231E-02
  3723.50    0.2047E-02
  3725.81    0.1892E-02
  3728.13    0.1763E-02
  3730.44    0.1655E-02
  3732.75    0.1567E-02
  3735.07    0.1495E-02
  3737.38    0.1439E-02
  3739.70    0.1397E-02
  3742.01    0.1371E-02
  3744.33    0.1358E-02
  3746.64    0.1361E-02
  3748.96    0.1381E-02
  3751.27    0.1420E-02
  3753.59    0.1480E-02
  3755.90    0.1568E-02
  3758.22    0.1688E-02
  3760.53    0.1850E-02
  3762.85    0.2066E-02
  3765.16    0.2355E-02
  3767.47    0.2740E-02
  3769.79    0.3255E-02
  3772.10    0.3939E-02
  3774.42    0.4831E-02
  3776.73    0.5939E-02
  3779.05    0.7168E-02
  3781.36    0.8235E-02
  3783.68    0.8708E-02
  3785.99    0.8332E-02
  3788.31    0.7300E-02
  3790.62    0.6042E-02
  3792.94    0.4874E-02
  3795.25    0.3916E-02
  3797.57    0.3170E-02
  3799.88    0.2598E-02
  3802.19    0.2161E-02
  3804.51    0.1823E-02
  3806.82    0.1558E-02
  3809.14    0.1349E-02
  3811.45    0.1180E-02
  3813.77    0.1043E-02
  3816.08    0.9298E-03
  3818.40    0.8354E-03
  3820.71    0.7559E-03
  3823.03    0.6882E-03
  3825.34    0.6301E-03
  3827.66    0.5799E-03
  3829.97    0.5360E-03
  3832.29    0.4976E-03
  3834.60    0.4636E-03
  3836.91    0.4334E-03
  3839.23    0.4064E-03
  3841.54    0.3821E-03
  3843.86    0.3603E-03
  3846.17    0.3405E-03
