
 ------------------------------------------------------------
     normal          Raman Scattering Plot
 ------------------------------------------------------------
 Excitation wavelength  514.50 nm
 Convolution lineshape is lorentzian  
 FWHM   20.00  1/cm
 ------------------------------------------------------------
 ------------------------------------------------------------
 # of frequencies :     3
 ------------------------------------------------------------
 #  freq [ 1/cm]  S [Ang**4/amu]
 ------------------------------------------------------------
   1  1591.50        0.8350
   2  3680.21      115.5505
   3  3783.86       28.4042
 ------------------------------------------------------------
  1533.82    0.2981E-04
  1536.13    0.3220E-04
  1538.45    0.3489E-04
  1540.76    0.3794E-04
  1543.08    0.4141E-04
  1545.39    0.4539E-04
  1547.71    0.4998E-04
  1550.02    0.5529E-04
  1552.33    0.6150E-04
  1554.65    0.6881E-04
  1556.96    0.7748E-04
  1559.28    0.8787E-04
  1561.59    0.1004E-03
  1563.91    0.1158E-03
  1566.22    0.1348E-03
  1568.54    0.1587E-03
  1570.85    0.1889E-03
  1573.17    0.2278E-03
  1575.48    0.2783E-03
  1577.80    0.3446E-03
  1580.11    0.4315E-03
  1582.43    0.5434E-03
  1584.74    0.6798E-03
  1587.05    0.8269E-03
  1589.37    0.9472E-03
  1591.68    0.9899E-03
  1594.00    0.9322E-03
  1596.31    0.8043E-03
  1598.63    0.6571E-03
  1600.94    0.5241E-03
  1603.26    0.4164E-03
  1605.57    0.3330E-03
  1607.89    0.2695E-03
  1610.20    0.2210E-03
  1612.52    0.1837E-03
  1614.83    0.1546E-03
  1617.15    0.1316E-03
  1619.46    0.1132E-03
  1621.77    0.9836E-04
  1624.09    0.8617E-04
  1626.40    0.7608E-04
  1628.72    0.6765E-04
  1631.03    0.6054E-04
  1633.35    0.5448E-04
  1635.66    0.4930E-04
  1637.98    0.4482E-04
  1640.29    0.4093E-04
  1642.61    0.3753E-04
  1644.92    0.3455E-04
  1647.24    0.3191E-04
  1649.55    0.2957E-04
  1651.87    0.2748E-04
  1654.18    0.2562E-04
  1656.49    0.2394E-04
  1658.81    0.2243E-04
  1661.12    0.2106E-04
  1663.44    0.1982E-04
  1665.75    0.1870E-04
  1668.07    0.1767E-04
  1670.38    0.1673E-04
  1672.70    0.1586E-04
  1675.01    0.1507E-04
  1677.33    0.1434E-04
  1679.64    0.1366E-04
  1681.96    0.1304E-04
  1684.27    0.1246E-04
  1686.59    0.1192E-04
  1688.90    0.1142E-04
  1691.22    0.1095E-04
  1693.53    0.1052E-04
  1695.84    0.1011E-04
  1698.16    0.9729E-05
  1700.47    0.9372E-05
  1702.79    0.9037E-05
  1705.10    0.8722E-05
  1707.42    0.8427E-05
  1709.73    0.8148E-05
  1712.05    0.7885E-05
  1714.36    0.7637E-05
  1716.68    0.7402E-05
  1718.99    0.7181E-05
  1721.31    0.6971E-05
  1723.62    0.6772E-05
  1725.94    0.6583E-05
  1728.25    0.6404E-05
  1730.56    0.6234E-05
  1732.88    0.6072E-05
  1735.19    0.5918E-05
  1737.51    0.5772E-05
  1739.82    0.5632E-05
  1742.14    0.5499E-05
  1744.45    0.5372E-05
  1746.77    0.5251E-05
  1749.08    0.5135E-05
  1751.40    0.5024E-05
  1753.71    0.4918E-05
  1756.03    0.4816E-05
  1758.34    0.4719E-05
  1760.66    0.4626E-05
  1762.97    0.4537E-05
  1765.28    0.4451E-05
  1767.60    0.4369E-05
  1769.91    0.4290E-05
  1772.23    0.4214E-05
  1774.54    0.4142E-05
  1776.86    0.4072E-05
  1779.17    0.4004E-05
  1781.49    0.3940E-05
  1783.80    0.3877E-05
  1786.12    0.3817E-05
  1788.43    0.3760E-05
  1790.75    0.3704E-05
  1793.06    0.3650E-05
  1795.38    0.3598E-05
  1797.69    0.3549E-05
  1800.00    0.3500E-05
  1802.32    0.3454E-05
  1804.63    0.3409E-05
  1806.95    0.3366E-05
  1809.26    0.3324E-05
  1811.58    0.3284E-05
  1813.89    0.3244E-05
  1816.21    0.3207E-05
  1818.52    0.3170E-05
  1820.84    0.3135E-05
  1823.15    0.3101E-05
  1825.47    0.3068E-05
  1827.78    0.3036E-05
  1830.10    0.3005E-05
  1832.41    0.2975E-05
  1834.72    0.2946E-05
  1837.04    0.2918E-05
  1839.35    0.2890E-05
  1841.67    0.2864E-05
  1843.98    0.2839E-05
  1846.30    0.2814E-05
  1848.61    0.2790E-05
  1850.93    0.2767E-05
  1853.24    0.2744E-05
  1855.56    0.2722E-05
  1857.87    0.2701E-05
  1860.19    0.2680E-05
  1862.50    0.2660E-05
  1864.82    0.2641E-05
  1867.13    0.2622E-05
  1869.44    0.2604E-05
  1871.76    0.2587E-05
  1874.07    0.2569E-05
  1876.39    0.2553E-05
  1878.70    0.2537E-05
  1881.02    0.2521E-05
  1883.33    0.2506E-05
  1885.65    0.2491E-05
  1887.96    0.2477E-05
  1890.28    0.2463E-05
  1892.59    0.2450E-05
  1894.91    0.2436E-05
  1897.22    0.2424E-05
  1899.54    0.2412E-05
  1901.85    0.2400E-05
  1904.17    0.2388E-05
  1906.48    0.2377E-05
  1908.79    0.2366E-05
  1911.11    0.2355E-05
  1913.42    0.2345E-05
  1915.74    0.2335E-05
  1918.05    0.2326E-05
  1920.37    0.2316E-05
  1922.68    0.2307E-05
  1925.00    0.2298E-05
  1927.31    0.2290E-05
  1929.63    0.2282E-05
  1931.94    0.2274E-05
  1934.26    0.2266E-05
  1936.57    0.2258E-05
  1938.89    0.2251E-05
  1941.20    0.2244E-05
  1943.51    0.2237E-05
  1945.83    0.2231E-05
  1948.14    0.2224E-05
  1950.46    0.2218E-05
  1952.77    0.2212E-05
  1955.09    0.2207E-05
  1957.40    0.2201E-05
  1959.72    0.2196E-05
  1962.03    0.2191E-05
  1964.35    0.2186E-05
  1966.66    0.2181E-05
  1968.98    0.2176E-05
  1971.29    0.2172E-05
  1973.61    0.2167E-05
  1975.92    0.2163E-05
  1978.23    0.2159E-05
  1980.55    0.2156E-05
  1982.86    0.2152E-05
  1985.18    0.2148E-05
  1987.49    0.2145E-05
  1989.81    0.2142E-05
  1992.12    0.2139E-05
  1994.44    0.2136E-05
  1996.75    0.2133E-05
  1999.07    0.2131E-05
  2001.38    0.2128E-05
  2003.70    0.2126E-05
  2006.01    0.2123E-05
  2008.33    0.2121E-05
  2010.64    0.2119E-05
  2012.95    0.2117E-05
  2015.27    0.2116E-05
  2017.58    0.2114E-05
  2019.90    0.2112E-05
  2022.21    0.2111E-05
  2024.53    0.2110E-05
  2026.84    0.2109E-05
  2029.16    0.2107E-05
  2031.47    0.2106E-05
  2033.79    0.2106E-05
  2036.10    0.2105E-05
  2038.42    0.2104E-05
  2040.73    0.2103E-05
  2043.05    0.2103E-05
  2045.36    0.2103E-05
  2047.67    0.2102E-05
  2049.99    0.2102E-05
  2052.30    0.2102E-05
  2054.62    0.2102E-05
  2056.93    0.2102E-05
  2059.25    0.2102E-05
  2061.56    0.2102E-05
  2063.88    0.2103E-05
  2066.19    0.2103E-05
  2068.51    0.2104E-05
  2070.82    0.2104E-05
  2073.14    0.2105E-05
  2075.45    0.2106E-05
  2077.77    0.2106E-05
  2080.08    0.2107E-05
  2082.40    0.2108E-05
  2084.71    0.2109E-05
  2087.02    0.2110E-05
  2089.34    0.2112E-05
  2091.65    0.2113E-05
  2093.97    0.2114E-05
  2096.28    0.2116E-05
  2098.60    0.2117E-05
  2100.91    0.2119E-05
  2103.23    0.2120E-05
  2105.54    0.2122E-05
  2107.86    0.2124E-05
  2110.17    0.2125E-05
  2112.49    0.2127E-05
  2114.80    0.2129E-05
  2117.12    0.2131E-05
  2119.43    0.2133E-05
  2121.74    0.2135E-05
  2124.06    0.2138E-05
  2126.37    0.2140E-05
  2128.69    0.2142E-05
  2131.00    0.2145E-05
  2133.32    0.2147E-05
  2135.63    0.2150E-05
  2137.95    0.2152E-05
  2140.26    0.2155E-05
  2142.58    0.2158E-05
  2144.89    0.2160E-05
  2147.21    0.2163E-05
  2149.52    0.2166E-05
  2151.84    0.2169E-05
  2154.15    0.2172E-05
  2156.46    0.2175E-05
  2158.78    0.2178E-05
  2161.09    0.2181E-05
  2163.41    0.2184E-05
  2165.72    0.2188E-05
  2168.04    0.2191E-05
  2170.35    0.2194E-05
  2172.67    0.2198E-05
  2174.98    0.2201E-05
  2177.30    0.2205E-05
  2179.61    0.2208E-05
  2181.93    0.2212E-05
  2184.24    0.2216E-05
  2186.56    0.2219E-05
  2188.87    0.2223E-05
  2191.18    0.2227E-05
  2193.50    0.2231E-05
  2195.81    0.2235E-05
  2198.13    0.2239E-05
  2200.44    0.2243E-05
  2202.76    0.2247E-05
  2205.07    0.2251E-05
  2207.39    0.2256E-05
  2209.70    0.2260E-05
  2212.02    0.2264E-05
  2214.33    0.2268E-05
  2216.65    0.2273E-05
  2218.96    0.2277E-05
  2221.28    0.2282E-05
  2223.59    0.2286E-05
  2225.90    0.2291E-05
  2228.22    0.2296E-05
  2230.53    0.2300E-05
  2232.85    0.2305E-05
  2235.16    0.2310E-05
  2237.48    0.2315E-05
  2239.79    0.2320E-05
  2242.11    0.2325E-05
  2244.42    0.2330E-05
  2246.74    0.2335E-05
  2249.05    0.2340E-05
  2251.37    0.2345E-05
  2253.68    0.2350E-05
  2256.00    0.2356E-05
  2258.31    0.2361E-05
  2260.62    0.2366E-05
  2262.94    0.2372E-05
  2265.25    0.2377E-05
  2267.57    0.2383E-05
  2269.88    0.2388E-05
  2272.20    0.2394E-05
  2274.51    0.2400E-05
  2276.83    0.2405E-05
  2279.14    0.2411E-05
  2281.46    0.2417E-05
  2283.77    0.2423E-05
  2286.09    0.2429E-05
  2288.40    0.2435E-05
  2290.72    0.2441E-05
  2293.03    0.2447E-05
  2295.35    0.2453E-05
  2297.66    0.2459E-05
  2299.97    0.2465E-05
  2302.29    0.2471E-05
  2304.60    0.2478E-05
  2306.92    0.2484E-05
  2309.23    0.2490E-05
  2311.55    0.2497E-05
  2313.86    0.2503E-05
  2316.18    0.2510E-05
  2318.49    0.2516E-05
  2320.81    0.2523E-05
  2323.12    0.2530E-05
  2325.44    0.2537E-05
  2327.75    0.2543E-05
  2330.07    0.2550E-05
  2332.38    0.2557E-05
  2334.69    0.2564E-05
  2337.01    0.2571E-05
  2339.32    0.2578E-05
  2341.64    0.2585E-05
  2343.95    0.2593E-05
  2346.27    0.2600E-05
  2348.58    0.2607E-05
  2350.90    0.2614E-05
  2353.21    0.2622E-05
  2355.53    0.2629E-05
  2357.84    0.2637E-05
  2360.16    0.2644E-05
  2362.47    0.2652E-05
  2364.79    0.2660E-05
  2367.10    0.2667E-05
  2369.41    0.2675E-05
  2371.73    0.2683E-05
  2374.04    0.2691E-05
  2376.36    0.2699E-05
  2378.67    0.2707E-05
  2380.99    0.2715E-05
  2383.30    0.2723E-05
  2385.62    0.2731E-05
  2387.93    0.2739E-05
  2390.25    0.2747E-05
  2392.56    0.2756E-05
  2394.88    0.2764E-05
  2397.19    0.2772E-05
  2399.51    0.2781E-05
  2401.82    0.2789E-05
  2404.13    0.2798E-05
  2406.45    0.2807E-05
  2408.76    0.2815E-05
  2411.08    0.2824E-05
  2413.39    0.2833E-05
  2415.71    0.2842E-05
  2418.02    0.2851E-05
  2420.34    0.2860E-05
  2422.65    0.2869E-05
  2424.97    0.2878E-05
  2427.28    0.2887E-05
  2429.60    0.2897E-05
  2431.91    0.2906E-05
  2434.23    0.2915E-05
  2436.54    0.2925E-05
  2438.85    0.2934E-05
  2441.17    0.2944E-05
  2443.48    0.2954E-05
  2445.80    0.2963E-05
  2448.11    0.2973E-05
  2450.43    0.2983E-05
  2452.74    0.2993E-05
  2455.06    0.3003E-05
  2457.37    0.3013E-05
  2459.69    0.3023E-05
  2462.00    0.3033E-05
  2464.32    0.3043E-05
  2466.63    0.3053E-05
  2468.95    0.3064E-05
  2471.26    0.3074E-05
  2473.57    0.3085E-05
  2475.89    0.3095E-05
  2478.20    0.3106E-05
  2480.52    0.3117E-05
  2482.83    0.3127E-05
  2485.15    0.3138E-05
  2487.46    0.3149E-05
  2489.78    0.3160E-05
  2492.09    0.3171E-05
  2494.41    0.3182E-05
  2496.72    0.3194E-05
  2499.04    0.3205E-05
  2501.35    0.3216E-05
  2503.67    0.3228E-05
  2505.98    0.3239E-05
  2508.30    0.3251E-05
  2510.61    0.3262E-05
  2512.92    0.3274E-05
  2515.24    0.3286E-05
  2517.55    0.3298E-05
  2519.87    0.3310E-05
  2522.18    0.3322E-05
  2524.50    0.3334E-05
  2526.81    0.3346E-05
  2529.13    0.3358E-05
  2531.44    0.3371E-05
  2533.76    0.3383E-05
  2536.07    0.3396E-05
  2538.39    0.3408E-05
  2540.70    0.3421E-05
  2543.02    0.3434E-05
  2545.33    0.3447E-05
  2547.64    0.3460E-05
  2549.96    0.3473E-05
  2552.27    0.3486E-05
  2554.59    0.3499E-05
  2556.90    0.3512E-05
  2559.22    0.3526E-05
  2561.53    0.3539E-05
  2563.85    0.3553E-05
  2566.16    0.3566E-05
  2568.48    0.3580E-05
  2570.79    0.3594E-05
  2573.11    0.3608E-05
  2575.42    0.3622E-05
  2577.74    0.3636E-05
  2580.05    0.3650E-05
  2582.36    0.3664E-05
  2584.68    0.3679E-05
  2586.99    0.3693E-05
  2589.31    0.3708E-05
  2591.62    0.3723E-05
  2593.94    0.3737E-05
  2596.25    0.3752E-05
  2598.57    0.3767E-05
  2600.88    0.3782E-05
  2603.20    0.3797E-05
  2605.51    0.3813E-05
  2607.83    0.3828E-05
  2610.14    0.3844E-05
  2612.46    0.3859E-05
  2614.77    0.3875E-05
  2617.08    0.3891E-05
  2619.40    0.3907E-05
  2621.71    0.3923E-05
  2624.03    0.3939E-05
  2626.34    0.3955E-05
  2628.66    0.3971E-05
  2630.97    0.3988E-05
  2633.29    0.4005E-05
  2635.60    0.4021E-05
  2637.92    0.4038E-05
  2640.23    0.4055E-05
  2642.55    0.4072E-05
  2644.86    0.4089E-05
  2647.18    0.4107E-05
  2649.49    0.4124E-05
  2651.80    0.4141E-05
  2654.12    0.4159E-05
  2656.43    0.4177E-05
  2658.75    0.4195E-05
  2661.06    0.4213E-05
  2663.38    0.4231E-05
  2665.69    0.4249E-05
  2668.01    0.4268E-05
  2670.32    0.4286E-05
  2672.64    0.4305E-05
  2674.95    0.4324E-05
  2677.27    0.4343E-05
  2679.58    0.4362E-05
  2681.90    0.4381E-05
  2684.21    0.4400E-05
  2686.53    0.4420E-05
  2688.84    0.4439E-05
  2691.15    0.4459E-05
  2693.47    0.4479E-05
  2695.78    0.4499E-05
  2698.10    0.4519E-05
  2700.41    0.4540E-05
  2702.73    0.4560E-05
  2705.04    0.4581E-05
  2707.36    0.4601E-05
  2709.67    0.4622E-05
  2711.99    0.4643E-05
  2714.30    0.4665E-05
  2716.62    0.4686E-05
  2718.93    0.4708E-05
  2721.25    0.4729E-05
  2723.56    0.4751E-05
  2725.87    0.4773E-05
  2728.19    0.4795E-05
  2730.50    0.4818E-05
  2732.82    0.4840E-05
  2735.13    0.4863E-05
  2737.45    0.4886E-05
  2739.76    0.4909E-05
  2742.08    0.4932E-05
  2744.39    0.4955E-05
  2746.71    0.4979E-05
  2749.02    0.5003E-05
  2751.34    0.5027E-05
  2753.65    0.5051E-05
  2755.97    0.5075E-05
  2758.28    0.5099E-05
  2760.59    0.5124E-05
  2762.91    0.5149E-05
  2765.22    0.5174E-05
  2767.54    0.5199E-05
  2769.85    0.5225E-05
  2772.17    0.5250E-05
  2774.48    0.5276E-05
  2776.80    0.5302E-05
  2779.11    0.5328E-05
  2781.43    0.5355E-05
  2783.74    0.5381E-05
  2786.06    0.5408E-05
  2788.37    0.5435E-05
  2790.69    0.5462E-05
  2793.00    0.5490E-05
  2795.31    0.5517E-05
  2797.63    0.5545E-05
  2799.94    0.5573E-05
  2802.26    0.5602E-05
  2804.57    0.5630E-05
  2806.89    0.5659E-05
  2809.20    0.5688E-05
  2811.52    0.5717E-05
  2813.83    0.5747E-05
  2816.15    0.5776E-05
  2818.46    0.5806E-05
  2820.78    0.5836E-05
  2823.09    0.5867E-05
  2825.41    0.5898E-05
  2827.72    0.5929E-05
  2830.03    0.5960E-05
  2832.35    0.5991E-05
  2834.66    0.6023E-05
  2836.98    0.6055E-05
  2839.29    0.6087E-05
  2841.61    0.6120E-05
  2843.92    0.6152E-05
  2846.24    0.6185E-05
  2848.55    0.6219E-05
  2850.87    0.6252E-05
  2853.18    0.6286E-05
  2855.50    0.6320E-05
  2857.81    0.6355E-05
  2860.13    0.6389E-05
  2862.44    0.6424E-05
  2864.75    0.6460E-05
  2867.07    0.6495E-05
  2869.38    0.6531E-05
  2871.70    0.6567E-05
  2874.01    0.6604E-05
  2876.33    0.6641E-05
  2878.64    0.6678E-05
  2880.96    0.6715E-05
  2883.27    0.6753E-05
  2885.59    0.6791E-05
  2887.90    0.6830E-05
  2890.22    0.6869E-05
  2892.53    0.6908E-05
  2894.85    0.6947E-05
  2897.16    0.6987E-05
  2899.48    0.7027E-05
  2901.79    0.7068E-05
  2904.10    0.7109E-05
  2906.42    0.7150E-05
  2908.73    0.7192E-05
  2911.05    0.7234E-05
  2913.36    0.7276E-05
  2915.68    0.7319E-05
  2917.99    0.7362E-05
  2920.31    0.7406E-05
  2922.62    0.7450E-05
  2924.94    0.7494E-05
  2927.25    0.7539E-05
  2929.57    0.7584E-05
  2931.88    0.7629E-05
  2934.20    0.7675E-05
  2936.51    0.7722E-05
  2938.82    0.7769E-05
  2941.14    0.7816E-05
  2943.45    0.7864E-05
  2945.77    0.7912E-05
  2948.08    0.7961E-05
  2950.40    0.8010E-05
  2952.71    0.8059E-05
  2955.03    0.8109E-05
  2957.34    0.8160E-05
  2959.66    0.8211E-05
  2961.97    0.8262E-05
  2964.29    0.8314E-05
  2966.60    0.8367E-05
  2968.92    0.8420E-05
  2971.23    0.8473E-05
  2973.54    0.8527E-05
  2975.86    0.8582E-05
  2978.17    0.8637E-05
  2980.49    0.8692E-05
  2982.80    0.8748E-05
  2985.12    0.8805E-05
  2987.43    0.8862E-05
  2989.75    0.8920E-05
  2992.06    0.8979E-05
  2994.38    0.9038E-05
  2996.69    0.9097E-05
  2999.01    0.9158E-05
  3001.32    0.9218E-05
  3003.64    0.9280E-05
  3005.95    0.9342E-05
  3008.26    0.9404E-05
  3010.58    0.9468E-05
  3012.89    0.9532E-05
  3015.21    0.9596E-05
  3017.52    0.9662E-05
  3019.84    0.9728E-05
  3022.15    0.9794E-05
  3024.47    0.9862E-05
  3026.78    0.9930E-05
  3029.10    0.9999E-05
  3031.41    0.1007E-04
  3033.73    0.1014E-04
  3036.04    0.1021E-04
  3038.36    0.1028E-04
  3040.67    0.1035E-04
  3042.98    0.1043E-04
  3045.30    0.1050E-04
  3047.61    0.1058E-04
  3049.93    0.1065E-04
  3052.24    0.1073E-04
  3054.56    0.1081E-04
  3056.87    0.1088E-04
  3059.19    0.1096E-04
  3061.50    0.1104E-04
  3063.82    0.1112E-04
  3066.13    0.1121E-04
  3068.45    0.1129E-04
  3070.76    0.1137E-04
  3073.08    0.1146E-04
  3075.39    0.1154E-04
  3077.71    0.1163E-04
  3080.02    0.1172E-04
  3082.33    0.1180E-04
  3084.65    0.1189E-04
  3086.96    0.1198E-04
  3089.28    0.1208E-04
  3091.59    0.1217E-04
  3093.91    0.1226E-04
  3096.22    0.1236E-04
  3098.54    0.1245E-04
  3100.85    0.1255E-04
  3103.17    0.1265E-04
  3105.48    0.1275E-04
  3107.80    0.1285E-04
  3110.11    0.1295E-04
  3112.43    0.1305E-04
  3114.74    0.1316E-04
  3117.05    0.1326E-04
  3119.37    0.1337E-04
  3121.68    0.1348E-04
  3124.00    0.1359E-04
  3126.31    0.1370E-04
  3128.63    0.1381E-04
  3130.94    0.1392E-04
  3133.26    0.1404E-04
  3135.57    0.1415E-04
  3137.89    0.1427E-04
  3140.20    0.1439E-04
  3142.52    0.1451E-04
  3144.83    0.1463E-04
  3147.15    0.1476E-04
  3149.46    0.1488E-04
  3151.77    0.1501E-04
  3154.09    0.1514E-04
  3156.40    0.1527E-04
  3158.72    0.1540E-04
  3161.03    0.1554E-04
  3163.35    0.1567E-04
  3165.66    0.1581E-04
  3167.98    0.1595E-04
  3170.29    0.1609E-04
  3172.61    0.1623E-04
  3174.92    0.1638E-04
  3177.24    0.1652E-04
  3179.55    0.1667E-04
  3181.87    0.1682E-04
  3184.18    0.1698E-04
  3186.49    0.1713E-04
  3188.81    0.1729E-04
  3191.12    0.1745E-04
  3193.44    0.1761E-04
  3195.75    0.1778E-04
  3198.07    0.1794E-04
  3200.38    0.1811E-04
  3202.70    0.1828E-04
  3205.01    0.1846E-04
  3207.33    0.1863E-04
  3209.64    0.1881E-04
  3211.96    0.1899E-04
  3214.27    0.1918E-04
  3216.59    0.1936E-04
  3218.90    0.1955E-04
  3221.21    0.1974E-04
  3223.53    0.1994E-04
  3225.84    0.2014E-04
  3228.16    0.2034E-04
  3230.47    0.2054E-04
  3232.79    0.2075E-04
  3235.10    0.2096E-04
  3237.42    0.2117E-04
  3239.73    0.2139E-04
  3242.05    0.2161E-04
  3244.36    0.2183E-04
  3246.68    0.2206E-04
  3248.99    0.2229E-04
  3251.31    0.2253E-04
  3253.62    0.2276E-04
  3255.93    0.2301E-04
  3258.25    0.2325E-04
  3260.56    0.2350E-04
  3262.88    0.2376E-04
  3265.19    0.2401E-04
  3267.51    0.2428E-04
  3269.82    0.2454E-04
  3272.14    0.2482E-04
  3274.45    0.2509E-04
  3276.77    0.2537E-04
  3279.08    0.2566E-04
  3281.40    0.2595E-04
  3283.71    0.2624E-04
  3286.03    0.2654E-04
  3288.34    0.2685E-04
  3290.66    0.2716E-04
  3292.97    0.2747E-04
  3295.28    0.2780E-04
  3297.60    0.2812E-04
  3299.91    0.2846E-04
  3302.23    0.2880E-04
  3304.54    0.2914E-04
  3306.86    0.2949E-04
  3309.17    0.2985E-04
  3311.49    0.3022E-04
  3313.80    0.3059E-04
  3316.12    0.3097E-04
  3318.43    0.3135E-04
  3320.75    0.3175E-04
  3323.06    0.3215E-04
  3325.38    0.3255E-04
  3327.69    0.3297E-04
  3330.00    0.3340E-04
  3332.32    0.3383E-04
  3334.63    0.3427E-04
  3336.95    0.3472E-04
  3339.26    0.3518E-04
  3341.58    0.3565E-04
  3343.89    0.3612E-04
  3346.21    0.3661E-04
  3348.52    0.3711E-04
  3350.84    0.3761E-04
  3353.15    0.3813E-04
  3355.47    0.3866E-04
  3357.78    0.3920E-04
  3360.10    0.3975E-04
  3362.41    0.4032E-04
  3364.72    0.4089E-04
  3367.04    0.4148E-04
  3369.35    0.4208E-04
  3371.67    0.4269E-04
  3373.98    0.4332E-04
  3376.30    0.4396E-04
  3378.61    0.4462E-04
  3380.93    0.4529E-04
  3383.24    0.4598E-04
  3385.56    0.4668E-04
  3387.87    0.4740E-04
  3390.19    0.4813E-04
  3392.50    0.4889E-04
  3394.82    0.4966E-04
  3397.13    0.5045E-04
  3399.44    0.5126E-04
  3401.76    0.5208E-04
  3404.07    0.5293E-04
  3406.39    0.5380E-04
  3408.70    0.5469E-04
  3411.02    0.5561E-04
  3413.33    0.5655E-04
  3415.65    0.5751E-04
  3417.96    0.5849E-04
  3420.28    0.5951E-04
  3422.59    0.6055E-04
  3424.91    0.6161E-04
  3427.22    0.6271E-04
  3429.54    0.6383E-04
  3431.85    0.6499E-04
  3434.16    0.6618E-04
  3436.48    0.6740E-04
  3438.79    0.6865E-04
  3441.11    0.6995E-04
  3443.42    0.7127E-04
  3445.74    0.7264E-04
  3448.05    0.7405E-04
  3450.37    0.7550E-04
  3452.68    0.7699E-04
  3455.00    0.7853E-04
  3457.31    0.8011E-04
  3459.63    0.8174E-04
  3461.94    0.8343E-04
  3464.26    0.8516E-04
  3466.57    0.8696E-04
  3468.88    0.8881E-04
  3471.20    0.9072E-04
  3473.51    0.9269E-04
  3475.83    0.9473E-04
  3478.14    0.9684E-04
  3480.46    0.9902E-04
  3482.77    0.1013E-03
  3485.09    0.1036E-03
  3487.40    0.1060E-03
  3489.72    0.1085E-03
  3492.03    0.1111E-03
  3494.35    0.1138E-03
  3496.66    0.1166E-03
  3498.98    0.1195E-03
  3501.29    0.1225E-03
  3503.61    0.1256E-03
  3505.92    0.1288E-03
  3508.23    0.1322E-03
  3510.55    0.1357E-03
  3512.86    0.1394E-03
  3515.18    0.1432E-03
  3517.49    0.1471E-03
  3519.81    0.1512E-03
  3522.12    0.1556E-03
  3524.44    0.1600E-03
  3526.75    0.1647E-03
  3529.07    0.1696E-03
  3531.38    0.1748E-03
  3533.70    0.1801E-03
  3536.01    0.1858E-03
  3538.33    0.1916E-03
  3540.64    0.1978E-03
  3542.95    0.2043E-03
  3545.27    0.2111E-03
  3547.58    0.2183E-03
  3549.90    0.2258E-03
  3552.21    0.2338E-03
  3554.53    0.2421E-03
  3556.84    0.2510E-03
  3559.16    0.2603E-03
  3561.47    0.2702E-03
  3563.79    0.2806E-03
  3566.10    0.2917E-03
  3568.42    0.3035E-03
  3570.73    0.3160E-03
  3573.05    0.3293E-03
  3575.36    0.3434E-03
  3577.67    0.3585E-03
  3579.99    0.3746E-03
  3582.30    0.3919E-03
  3584.62    0.4103E-03
  3586.93    0.4302E-03
  3589.25    0.4515E-03
  3591.56    0.4745E-03
  3593.88    0.4992E-03
  3596.19    0.5260E-03
  3598.51    0.5551E-03
  3600.82    0.5866E-03
  3603.14    0.6209E-03
  3605.45    0.6583E-03
  3607.77    0.6993E-03
  3610.08    0.7442E-03
  3612.39    0.7937E-03
  3614.71    0.8482E-03
  3617.02    0.9087E-03
  3619.34    0.9758E-03
  3621.65    0.1051E-02
  3623.97    0.1135E-02
  3626.28    0.1229E-02
  3628.60    0.1336E-02
  3630.91    0.1457E-02
  3633.23    0.1595E-02
  3635.54    0.1754E-02
  3637.86    0.1938E-02
  3640.17    0.2152E-02
  3642.49    0.2402E-02
  3644.80    0.2699E-02
  3647.11    0.3053E-02
  3649.43    0.3479E-02
  3651.74    0.3997E-02
  3654.06    0.4636E-02
  3656.37    0.5432E-02
  3658.69    0.6437E-02
  3661.00    0.7722E-02
  3663.32    0.9386E-02
  3665.63    0.1156E-01
  3667.95    0.1442E-01
  3670.26    0.1813E-01
  3672.58    0.2278E-01
  3674.89    0.2809E-01
  3677.21    0.3305E-01
  3679.52    0.3587E-01
  3681.84    0.3512E-01
  3684.15    0.3122E-01
  3686.46    0.2595E-01
  3688.78    0.2084E-01
  3691.09    0.1657E-01
  3693.41    0.1322E-01
  3695.72    0.1067E-01
  3698.04    0.8723E-02
  3700.35    0.7232E-02
  3702.67    0.6078E-02
  3704.98    0.5174E-02
  3707.30    0.4456E-02
  3709.61    0.3879E-02
  3711.93    0.3412E-02
  3714.24    0.3029E-02
  3716.56    0.2712E-02
  3718.87    0.2450E-02
  3721.18    0.2230E-02
  3723.50    0.2046E-02
  3725.81    0.1892E-02
  3728.13    0.1762E-02
  3730.44    0.1655E-02
  3732.76    0.1566E-02
  3735.07    0.1494E-02
  3737.39    0.1438E-02
  3739.70    0.1397E-02
  3742.02    0.1370E-02
  3744.33    0.1358E-02
  3746.65    0.1361E-02
  3748.96    0.1381E-02
  3751.28    0.1419E-02
  3753.59    0.1480E-02
  3755.90    0.1567E-02
  3758.22    0.1687E-02
  3760.53    0.1849E-02
  3762.85    0.2065E-02
  3765.16    0.2354E-02
  3767.48    0.2739E-02
  3769.79    0.3253E-02
  3772.11    0.3937E-02
  3774.42    0.4829E-02
  3776.74    0.5936E-02
  3779.05    0.7165E-02
  3781.37    0.8231E-02
  3783.68    0.8704E-02
  3786.00    0.8328E-02
  3788.31    0.7296E-02
  3790.62    0.6039E-02
  3792.94    0.4872E-02
  3795.25    0.3914E-02
  3797.57    0.3168E-02
  3799.88    0.2597E-02
  3802.20    0.2160E-02
  3804.51    0.1822E-02
  3806.83    0.1558E-02
  3809.14    0.1348E-02
  3811.46    0.1180E-02
  3813.77    0.1043E-02
  3816.09    0.9294E-03
  3818.40    0.8351E-03
  3820.72    0.7556E-03
  3823.03    0.6879E-03
  3825.34    0.6299E-03
  3827.66    0.5796E-03
  3829.97    0.5358E-03
  3832.29    0.4973E-03
  3834.60    0.4634E-03
  3836.92    0.4332E-03
  3839.23    0.4062E-03
  3841.55    0.3820E-03
  3843.86    0.3601E-03
  3846.18    0.3404E-03
