
 ------------------------------------------------------------
     resonance       Raman Scattering Plot
 ------------------------------------------------------------
 Excitation wavelength  514.50 nm
 Convolution lineshape is lorentzian  
 FWHM   20.00  1/cm
 ------------------------------------------------------------
 ------------------------------------------------------------
 # of frequencies :     3
 ------------------------------------------------------------
#  freq [ 1/cm]  S-tot [a.u.]S-real [a.u.]  S-imag [a.u.]
 ------------------------------------------------------------
   1  1591.50        0.8354        0.8349        0.0005
   2  3680.21      115.5964      115.5557        0.0407
   3  3783.86       28.4166       28.4067        0.0100
 ------------------------------------------------------------
  1533.82    0.2982E-04    0.2980E-04    0.1916E-07
  1536.13    0.3221E-04    0.3219E-04    0.2072E-07
  1538.45    0.3490E-04    0.3488E-04    0.2248E-07
  1540.76    0.3796E-04    0.3793E-04    0.2447E-07
  1543.08    0.4143E-04    0.4141E-04    0.2673E-07
  1545.39    0.4541E-04    0.4538E-04    0.2933E-07
  1547.71    0.5000E-04    0.4997E-04    0.3232E-07
  1550.02    0.5532E-04    0.5528E-04    0.3579E-07
  1552.34    0.6153E-04    0.6149E-04    0.3984E-07
  1554.65    0.6884E-04    0.6880E-04    0.4460E-07
  1556.96    0.7752E-04    0.7747E-04    0.5026E-07
  1559.28    0.8791E-04    0.8786E-04    0.5704E-07
  1561.59    0.1005E-03    0.1004E-03    0.6524E-07
  1563.91    0.1159E-03    0.1158E-03    0.7527E-07
  1566.22    0.1349E-03    0.1348E-03    0.8768E-07
  1568.54    0.1587E-03    0.1586E-03    0.1032E-06
  1570.85    0.1890E-03    0.1889E-03    0.1230E-06
  1573.17    0.2279E-03    0.2277E-03    0.1483E-06
  1575.48    0.2785E-03    0.2783E-03    0.1813E-06
  1577.80    0.3448E-03    0.3446E-03    0.2246E-06
  1580.11    0.4317E-03    0.4315E-03    0.2813E-06
  1582.43    0.5436E-03    0.5433E-03    0.3542E-06
  1584.74    0.6801E-03    0.6797E-03    0.4433E-06
  1587.06    0.8273E-03    0.8267E-03    0.5392E-06
  1589.37    0.9477E-03    0.9470E-03    0.6177E-06
  1591.68    0.9904E-03    0.9898E-03    0.6456E-06
  1594.00    0.9327E-03    0.9321E-03    0.6080E-06
  1596.31    0.8047E-03    0.8042E-03    0.5245E-06
  1598.63    0.6575E-03    0.6570E-03    0.4285E-06
  1600.94    0.5244E-03    0.5240E-03    0.3417E-06
  1603.26    0.4166E-03    0.4163E-03    0.2714E-06
  1605.57    0.3332E-03    0.3330E-03    0.2170E-06
  1607.89    0.2696E-03    0.2695E-03    0.1755E-06
  1610.20    0.2211E-03    0.2210E-03    0.1439E-06
  1612.52    0.1838E-03    0.1837E-03    0.1195E-06
  1614.83    0.1547E-03    0.1546E-03    0.1006E-06
  1617.15    0.1317E-03    0.1316E-03    0.8556E-07
  1619.46    0.1133E-03    0.1132E-03    0.7357E-07
  1621.78    0.9841E-04    0.9834E-04    0.6387E-07
  1624.09    0.8621E-04    0.8616E-04    0.5591E-07
  1626.41    0.7612E-04    0.7607E-04    0.4933E-07
  1628.72    0.6768E-04    0.6764E-04    0.4383E-07
  1631.03    0.6056E-04    0.6053E-04    0.3919E-07
  1633.35    0.5451E-04    0.5447E-04    0.3524E-07
  1635.66    0.4932E-04    0.4929E-04    0.3185E-07
  1637.98    0.4484E-04    0.4481E-04    0.2893E-07
  1640.29    0.4095E-04    0.4092E-04    0.2639E-07
  1642.61    0.3755E-04    0.3753E-04    0.2417E-07
  1644.92    0.3456E-04    0.3454E-04    0.2222E-07
  1647.24    0.3192E-04    0.3190E-04    0.2050E-07
  1649.55    0.2958E-04    0.2956E-04    0.1898E-07
  1651.87    0.2750E-04    0.2748E-04    0.1761E-07
  1654.18    0.2563E-04    0.2561E-04    0.1640E-07
  1656.50    0.2395E-04    0.2394E-04    0.1530E-07
  1658.81    0.2244E-04    0.2243E-04    0.1432E-07
  1661.13    0.2107E-04    0.2106E-04    0.1342E-07
  1663.44    0.1983E-04    0.1982E-04    0.1261E-07
  1665.75    0.1871E-04    0.1869E-04    0.1188E-07
  1668.07    0.1768E-04    0.1766E-04    0.1120E-07
  1670.38    0.1673E-04    0.1672E-04    0.1059E-07
  1672.70    0.1587E-04    0.1586E-04    0.1002E-07
  1675.01    0.1507E-04    0.1507E-04    0.9506E-08
  1677.33    0.1434E-04    0.1433E-04    0.9028E-08
  1679.64    0.1367E-04    0.1366E-04    0.8586E-08
  1681.96    0.1304E-04    0.1303E-04    0.8177E-08
  1684.27    0.1246E-04    0.1245E-04    0.7799E-08
  1686.59    0.1192E-04    0.1192E-04    0.7447E-08
  1688.90    0.1142E-04    0.1142E-04    0.7120E-08
  1691.22    0.1096E-04    0.1095E-04    0.6815E-08
  1693.53    0.1052E-04    0.1051E-04    0.6530E-08
  1695.85    0.1011E-04    0.1011E-04    0.6264E-08
  1698.16    0.9733E-05    0.9727E-05    0.6015E-08
  1700.47    0.9376E-05    0.9371E-05    0.5781E-08
  1702.79    0.9041E-05    0.9036E-05    0.5562E-08
  1705.10    0.8727E-05    0.8721E-05    0.5356E-08
  1707.42    0.8431E-05    0.8425E-05    0.5162E-08
  1709.73    0.8152E-05    0.8147E-05    0.4979E-08
  1712.05    0.7889E-05    0.7884E-05    0.4807E-08
  1714.36    0.7640E-05    0.7636E-05    0.4644E-08
  1716.68    0.7406E-05    0.7401E-05    0.4491E-08
  1718.99    0.7184E-05    0.7180E-05    0.4345E-08
  1721.31    0.6974E-05    0.6970E-05    0.4208E-08
  1723.62    0.6775E-05    0.6771E-05    0.4077E-08
  1725.94    0.6586E-05    0.6582E-05    0.3953E-08
  1728.25    0.6407E-05    0.6403E-05    0.3835E-08
  1730.57    0.6237E-05    0.6233E-05    0.3724E-08
  1732.88    0.6075E-05    0.6072E-05    0.3617E-08
  1735.19    0.5921E-05    0.5918E-05    0.3516E-08
  1737.51    0.5774E-05    0.5771E-05    0.3420E-08
  1739.82    0.5635E-05    0.5631E-05    0.3328E-08
  1742.14    0.5502E-05    0.5498E-05    0.3240E-08
  1744.45    0.5374E-05    0.5371E-05    0.3156E-08
  1746.77    0.5253E-05    0.5250E-05    0.3076E-08
  1749.08    0.5137E-05    0.5134E-05    0.3000E-08
  1751.40    0.5026E-05    0.5023E-05    0.2927E-08
  1753.71    0.4920E-05    0.4917E-05    0.2857E-08
  1756.03    0.4819E-05    0.4816E-05    0.2789E-08
  1758.34    0.4721E-05    0.4719E-05    0.2725E-08
  1760.66    0.4628E-05    0.4625E-05    0.2664E-08
  1762.97    0.4539E-05    0.4536E-05    0.2605E-08
  1765.29    0.4453E-05    0.4451E-05    0.2548E-08
  1767.60    0.4371E-05    0.4369E-05    0.2493E-08
  1769.91    0.4292E-05    0.4290E-05    0.2441E-08
  1772.23    0.4216E-05    0.4214E-05    0.2391E-08
  1774.54    0.4144E-05    0.4141E-05    0.2342E-08
  1776.86    0.4074E-05    0.4071E-05    0.2296E-08
  1779.17    0.4006E-05    0.4004E-05    0.2251E-08
  1781.49    0.3941E-05    0.3939E-05    0.2208E-08
  1783.80    0.3879E-05    0.3877E-05    0.2167E-08
  1786.12    0.3819E-05    0.3817E-05    0.2126E-08
  1788.43    0.3761E-05    0.3759E-05    0.2088E-08
  1790.75    0.3706E-05    0.3704E-05    0.2051E-08
  1793.06    0.3652E-05    0.3650E-05    0.2015E-08
  1795.38    0.3600E-05    0.3598E-05    0.1980E-08
  1797.69    0.3550E-05    0.3548E-05    0.1947E-08
  1800.01    0.3502E-05    0.3500E-05    0.1914E-08
  1802.32    0.3456E-05    0.3454E-05    0.1883E-08
  1804.63    0.3411E-05    0.3409E-05    0.1853E-08
  1806.95    0.3367E-05    0.3365E-05    0.1824E-08
  1809.26    0.3325E-05    0.3324E-05    0.1796E-08
  1811.58    0.3285E-05    0.3283E-05    0.1768E-08
  1813.89    0.3246E-05    0.3244E-05    0.1742E-08
  1816.21    0.3208E-05    0.3206E-05    0.1716E-08
  1818.52    0.3172E-05    0.3170E-05    0.1692E-08
  1820.84    0.3136E-05    0.3135E-05    0.1668E-08
  1823.15    0.3102E-05    0.3101E-05    0.1644E-08
  1825.47    0.3069E-05    0.3067E-05    0.1622E-08
  1827.78    0.3037E-05    0.3035E-05    0.1600E-08
  1830.10    0.3006E-05    0.3005E-05    0.1579E-08
  1832.41    0.2976E-05    0.2975E-05    0.1558E-08
  1834.73    0.2947E-05    0.2946E-05    0.1539E-08
  1837.04    0.2919E-05    0.2917E-05    0.1519E-08
  1839.35    0.2892E-05    0.2890E-05    0.1501E-08
  1841.67    0.2865E-05    0.2864E-05    0.1482E-08
  1843.98    0.2840E-05    0.2838E-05    0.1465E-08
  1846.30    0.2815E-05    0.2814E-05    0.1448E-08
  1848.61    0.2791E-05    0.2790E-05    0.1431E-08
  1850.93    0.2768E-05    0.2766E-05    0.1415E-08
  1853.24    0.2745E-05    0.2744E-05    0.1399E-08
  1855.56    0.2723E-05    0.2722E-05    0.1384E-08
  1857.87    0.2702E-05    0.2701E-05    0.1369E-08
  1860.19    0.2682E-05    0.2680E-05    0.1355E-08
  1862.50    0.2662E-05    0.2660E-05    0.1341E-08
  1864.82    0.2642E-05    0.2641E-05    0.1327E-08
  1867.13    0.2624E-05    0.2622E-05    0.1314E-08
  1869.45    0.2605E-05    0.2604E-05    0.1301E-08
  1871.76    0.2588E-05    0.2586E-05    0.1288E-08
  1874.07    0.2571E-05    0.2569E-05    0.1276E-08
  1876.39    0.2554E-05    0.2553E-05    0.1264E-08
  1878.70    0.2538E-05    0.2537E-05    0.1253E-08
  1881.02    0.2522E-05    0.2521E-05    0.1242E-08
  1883.33    0.2507E-05    0.2506E-05    0.1231E-08
  1885.65    0.2492E-05    0.2491E-05    0.1220E-08
  1887.96    0.2478E-05    0.2477E-05    0.1210E-08
  1890.28    0.2464E-05    0.2463E-05    0.1200E-08
  1892.59    0.2451E-05    0.2449E-05    0.1190E-08
  1894.91    0.2438E-05    0.2436E-05    0.1180E-08
  1897.22    0.2425E-05    0.2424E-05    0.1171E-08
  1899.54    0.2413E-05    0.2411E-05    0.1162E-08
  1901.85    0.2401E-05    0.2400E-05    0.1153E-08
  1904.17    0.2389E-05    0.2388E-05    0.1144E-08
  1906.48    0.2378E-05    0.2377E-05    0.1136E-08
  1908.79    0.2367E-05    0.2366E-05    0.1128E-08
  1911.11    0.2356E-05    0.2355E-05    0.1120E-08
  1913.42    0.2346E-05    0.2345E-05    0.1112E-08
  1915.74    0.2336E-05    0.2335E-05    0.1105E-08
  1918.05    0.2327E-05    0.2325E-05    0.1097E-08
  1920.37    0.2317E-05    0.2316E-05    0.1090E-08
  1922.68    0.2308E-05    0.2307E-05    0.1083E-08
  1925.00    0.2299E-05    0.2298E-05    0.1076E-08
  1927.31    0.2291E-05    0.2290E-05    0.1069E-08
  1929.63    0.2283E-05    0.2282E-05    0.1063E-08
  1931.94    0.2275E-05    0.2274E-05    0.1057E-08
  1934.26    0.2267E-05    0.2266E-05    0.1050E-08
  1936.57    0.2259E-05    0.2258E-05    0.1044E-08
  1938.89    0.2252E-05    0.2251E-05    0.1039E-08
  1941.20    0.2245E-05    0.2244E-05    0.1033E-08
  1943.51    0.2238E-05    0.2237E-05    0.1027E-08
  1945.83    0.2232E-05    0.2231E-05    0.1022E-08
  1948.14    0.2225E-05    0.2224E-05    0.1017E-08
  1950.46    0.2219E-05    0.2218E-05    0.1011E-08
  1952.77    0.2213E-05    0.2212E-05    0.1006E-08
  1955.09    0.2208E-05    0.2207E-05    0.1001E-08
  1957.40    0.2202E-05    0.2201E-05    0.9967E-09
  1959.72    0.2197E-05    0.2196E-05    0.9920E-09
  1962.03    0.2191E-05    0.2190E-05    0.9875E-09
  1964.35    0.2186E-05    0.2186E-05    0.9831E-09
  1966.66    0.2182E-05    0.2181E-05    0.9787E-09
  1968.98    0.2177E-05    0.2176E-05    0.9745E-09
  1971.29    0.2173E-05    0.2172E-05    0.9704E-09
  1973.61    0.2168E-05    0.2167E-05    0.9665E-09
  1975.92    0.2164E-05    0.2163E-05    0.9626E-09
  1978.23    0.2160E-05    0.2159E-05    0.9588E-09
  1980.55    0.2156E-05    0.2156E-05    0.9551E-09
  1982.86    0.2153E-05    0.2152E-05    0.9515E-09
  1985.18    0.2149E-05    0.2148E-05    0.9480E-09
  1987.49    0.2146E-05    0.2145E-05    0.9446E-09
  1989.81    0.2143E-05    0.2142E-05    0.9413E-09
  1992.12    0.2140E-05    0.2139E-05    0.9380E-09
  1994.44    0.2137E-05    0.2136E-05    0.9349E-09
  1996.75    0.2134E-05    0.2133E-05    0.9318E-09
  1999.07    0.2131E-05    0.2131E-05    0.9289E-09
  2001.38    0.2129E-05    0.2128E-05    0.9260E-09
  2003.70    0.2127E-05    0.2126E-05    0.9232E-09
  2006.01    0.2124E-05    0.2123E-05    0.9204E-09
  2008.33    0.2122E-05    0.2121E-05    0.9178E-09
  2010.64    0.2120E-05    0.2119E-05    0.9152E-09
  2012.95    0.2118E-05    0.2117E-05    0.9127E-09
  2015.27    0.2117E-05    0.2116E-05    0.9102E-09
  2017.58    0.2115E-05    0.2114E-05    0.9078E-09
  2019.90    0.2113E-05    0.2112E-05    0.9055E-09
  2022.21    0.2112E-05    0.2111E-05    0.9033E-09
  2024.53    0.2111E-05    0.2110E-05    0.9011E-09
  2026.84    0.2109E-05    0.2109E-05    0.8990E-09
  2029.16    0.2108E-05    0.2107E-05    0.8970E-09
  2031.47    0.2107E-05    0.2106E-05    0.8950E-09
  2033.79    0.2106E-05    0.2106E-05    0.8931E-09
  2036.10    0.2106E-05    0.2105E-05    0.8913E-09
  2038.42    0.2105E-05    0.2104E-05    0.8895E-09
  2040.73    0.2104E-05    0.2104E-05    0.8877E-09
  2043.05    0.2104E-05    0.2103E-05    0.8861E-09
  2045.36    0.2104E-05    0.2103E-05    0.8844E-09
  2047.67    0.2103E-05    0.2102E-05    0.8829E-09
  2049.99    0.2103E-05    0.2102E-05    0.8814E-09
  2052.30    0.2103E-05    0.2102E-05    0.8799E-09
  2054.62    0.2103E-05    0.2102E-05    0.8785E-09
  2056.93    0.2103E-05    0.2102E-05    0.8772E-09
  2059.25    0.2103E-05    0.2102E-05    0.8759E-09
  2061.56    0.2103E-05    0.2102E-05    0.8746E-09
  2063.88    0.2104E-05    0.2103E-05    0.8734E-09
  2066.19    0.2104E-05    0.2103E-05    0.8723E-09
  2068.51    0.2105E-05    0.2104E-05    0.8711E-09
  2070.82    0.2105E-05    0.2104E-05    0.8701E-09
  2073.14    0.2106E-05    0.2105E-05    0.8691E-09
  2075.45    0.2106E-05    0.2106E-05    0.8681E-09
  2077.77    0.2107E-05    0.2106E-05    0.8672E-09
  2080.08    0.2108E-05    0.2107E-05    0.8663E-09
  2082.39    0.2109E-05    0.2108E-05    0.8655E-09
  2084.71    0.2110E-05    0.2109E-05    0.8647E-09
  2087.02    0.2111E-05    0.2110E-05    0.8640E-09
  2089.34    0.2112E-05    0.2112E-05    0.8633E-09
  2091.65    0.2114E-05    0.2113E-05    0.8626E-09
  2093.97    0.2115E-05    0.2114E-05    0.8620E-09
  2096.28    0.2116E-05    0.2116E-05    0.8614E-09
  2098.60    0.2118E-05    0.2117E-05    0.8608E-09
  2100.91    0.2119E-05    0.2119E-05    0.8603E-09
  2103.23    0.2121E-05    0.2120E-05    0.8599E-09
  2105.54    0.2123E-05    0.2122E-05    0.8594E-09
  2107.86    0.2125E-05    0.2124E-05    0.8591E-09
  2110.17    0.2126E-05    0.2125E-05    0.8587E-09
  2112.49    0.2128E-05    0.2127E-05    0.8584E-09
  2114.80    0.2130E-05    0.2129E-05    0.8581E-09
  2117.12    0.2132E-05    0.2131E-05    0.8579E-09
  2119.43    0.2134E-05    0.2133E-05    0.8577E-09
  2121.74    0.2136E-05    0.2136E-05    0.8575E-09
  2124.06    0.2139E-05    0.2138E-05    0.8573E-09
  2126.37    0.2141E-05    0.2140E-05    0.8572E-09
  2128.69    0.2143E-05    0.2142E-05    0.8572E-09
  2131.00    0.2146E-05    0.2145E-05    0.8571E-09
  2133.32    0.2148E-05    0.2147E-05    0.8571E-09
  2135.63    0.2151E-05    0.2150E-05    0.8571E-09
  2137.95    0.2153E-05    0.2152E-05    0.8572E-09
  2140.26    0.2156E-05    0.2155E-05    0.8573E-09
  2142.58    0.2158E-05    0.2158E-05    0.8574E-09
  2144.89    0.2161E-05    0.2160E-05    0.8576E-09
  2147.21    0.2164E-05    0.2163E-05    0.8577E-09
  2149.52    0.2167E-05    0.2166E-05    0.8580E-09
  2151.84    0.2170E-05    0.2169E-05    0.8582E-09
  2154.15    0.2173E-05    0.2172E-05    0.8585E-09
  2156.46    0.2176E-05    0.2175E-05    0.8588E-09
  2158.78    0.2179E-05    0.2178E-05    0.8591E-09
  2161.09    0.2182E-05    0.2181E-05    0.8595E-09
  2163.41    0.2185E-05    0.2184E-05    0.8599E-09
  2165.72    0.2189E-05    0.2188E-05    0.8603E-09
  2168.04    0.2192E-05    0.2191E-05    0.8607E-09
  2170.35    0.2195E-05    0.2194E-05    0.8612E-09
  2172.67    0.2199E-05    0.2198E-05    0.8617E-09
  2174.98    0.2202E-05    0.2201E-05    0.8622E-09
  2177.30    0.2206E-05    0.2205E-05    0.8628E-09
  2179.61    0.2209E-05    0.2208E-05    0.8634E-09
  2181.93    0.2213E-05    0.2212E-05    0.8640E-09
  2184.24    0.2217E-05    0.2216E-05    0.8646E-09
  2186.56    0.2220E-05    0.2219E-05    0.8653E-09
  2188.87    0.2224E-05    0.2223E-05    0.8660E-09
  2191.18    0.2228E-05    0.2227E-05    0.8667E-09
  2193.50    0.2232E-05    0.2231E-05    0.8674E-09
  2195.81    0.2236E-05    0.2235E-05    0.8682E-09
  2198.13    0.2240E-05    0.2239E-05    0.8690E-09
  2200.44    0.2244E-05    0.2243E-05    0.8698E-09
  2202.76    0.2248E-05    0.2247E-05    0.8706E-09
  2205.07    0.2252E-05    0.2251E-05    0.8715E-09
  2207.39    0.2256E-05    0.2256E-05    0.8724E-09
  2209.70    0.2261E-05    0.2260E-05    0.8733E-09
  2212.02    0.2265E-05    0.2264E-05    0.8743E-09
  2214.33    0.2269E-05    0.2269E-05    0.8752E-09
  2216.65    0.2274E-05    0.2273E-05    0.8762E-09
  2218.96    0.2278E-05    0.2277E-05    0.8772E-09
  2221.28    0.2283E-05    0.2282E-05    0.8783E-09
  2223.59    0.2287E-05    0.2287E-05    0.8793E-09
  2225.90    0.2292E-05    0.2291E-05    0.8804E-09
  2228.22    0.2297E-05    0.2296E-05    0.8815E-09
  2230.53    0.2301E-05    0.2301E-05    0.8826E-09
  2232.85    0.2306E-05    0.2305E-05    0.8838E-09
  2235.16    0.2311E-05    0.2310E-05    0.8850E-09
  2237.48    0.2316E-05    0.2315E-05    0.8862E-09
  2239.79    0.2321E-05    0.2320E-05    0.8874E-09
  2242.11    0.2326E-05    0.2325E-05    0.8887E-09
  2244.42    0.2331E-05    0.2330E-05    0.8899E-09
  2246.74    0.2336E-05    0.2335E-05    0.8912E-09
  2249.05    0.2341E-05    0.2340E-05    0.8925E-09
  2251.37    0.2346E-05    0.2345E-05    0.8939E-09
  2253.68    0.2351E-05    0.2350E-05    0.8952E-09
  2256.00    0.2357E-05    0.2356E-05    0.8966E-09
  2258.31    0.2362E-05    0.2361E-05    0.8980E-09
  2260.62    0.2367E-05    0.2366E-05    0.8994E-09
  2262.94    0.2373E-05    0.2372E-05    0.9009E-09
  2265.25    0.2378E-05    0.2377E-05    0.9024E-09
  2267.57    0.2384E-05    0.2383E-05    0.9039E-09
  2269.88    0.2389E-05    0.2388E-05    0.9054E-09
  2272.20    0.2395E-05    0.2394E-05    0.9069E-09
  2274.51    0.2401E-05    0.2400E-05    0.9085E-09
  2276.83    0.2406E-05    0.2405E-05    0.9100E-09
  2279.14    0.2412E-05    0.2411E-05    0.9117E-09
  2281.46    0.2418E-05    0.2417E-05    0.9133E-09
  2283.77    0.2424E-05    0.2423E-05    0.9149E-09
  2286.09    0.2430E-05    0.2429E-05    0.9166E-09
  2288.40    0.2436E-05    0.2435E-05    0.9183E-09
  2290.72    0.2442E-05    0.2441E-05    0.9200E-09
  2293.03    0.2448E-05    0.2447E-05    0.9217E-09
  2295.34    0.2454E-05    0.2453E-05    0.9235E-09
  2297.66    0.2460E-05    0.2459E-05    0.9252E-09
  2299.97    0.2466E-05    0.2465E-05    0.9270E-09
  2302.29    0.2472E-05    0.2471E-05    0.9289E-09
  2304.60    0.2479E-05    0.2478E-05    0.9307E-09
  2306.92    0.2485E-05    0.2484E-05    0.9326E-09
  2309.23    0.2491E-05    0.2490E-05    0.9344E-09
  2311.55    0.2498E-05    0.2497E-05    0.9363E-09
  2313.86    0.2504E-05    0.2503E-05    0.9383E-09
  2316.18    0.2511E-05    0.2510E-05    0.9402E-09
  2318.49    0.2518E-05    0.2517E-05    0.9422E-09
  2320.81    0.2524E-05    0.2523E-05    0.9442E-09
  2323.12    0.2531E-05    0.2530E-05    0.9462E-09
  2325.44    0.2538E-05    0.2537E-05    0.9482E-09
  2327.75    0.2544E-05    0.2544E-05    0.9503E-09
  2330.06    0.2551E-05    0.2550E-05    0.9523E-09
  2332.38    0.2558E-05    0.2557E-05    0.9544E-09
  2334.69    0.2565E-05    0.2564E-05    0.9565E-09
  2337.01    0.2572E-05    0.2571E-05    0.9587E-09
  2339.32    0.2579E-05    0.2578E-05    0.9608E-09
  2341.64    0.2586E-05    0.2585E-05    0.9630E-09
  2343.95    0.2594E-05    0.2593E-05    0.9652E-09
  2346.27    0.2601E-05    0.2600E-05    0.9674E-09
  2348.58    0.2608E-05    0.2607E-05    0.9697E-09
  2350.90    0.2615E-05    0.2615E-05    0.9720E-09
  2353.21    0.2623E-05    0.2622E-05    0.9742E-09
  2355.53    0.2630E-05    0.2629E-05    0.9766E-09
  2357.84    0.2638E-05    0.2637E-05    0.9789E-09
  2360.16    0.2645E-05    0.2644E-05    0.9812E-09
  2362.47    0.2653E-05    0.2652E-05    0.9836E-09
  2364.78    0.2661E-05    0.2660E-05    0.9860E-09
  2367.10    0.2668E-05    0.2667E-05    0.9884E-09
  2369.41    0.2676E-05    0.2675E-05    0.9909E-09
  2371.73    0.2684E-05    0.2683E-05    0.9933E-09
  2374.04    0.2692E-05    0.2691E-05    0.9958E-09
  2376.36    0.2700E-05    0.2699E-05    0.9983E-09
  2378.67    0.2708E-05    0.2707E-05    0.1001E-08
  2380.99    0.2716E-05    0.2715E-05    0.1003E-08
  2383.30    0.2724E-05    0.2723E-05    0.1006E-08
  2385.62    0.2732E-05    0.2731E-05    0.1009E-08
  2387.93    0.2740E-05    0.2739E-05    0.1011E-08
  2390.25    0.2748E-05    0.2747E-05    0.1014E-08
  2392.56    0.2757E-05    0.2756E-05    0.1016E-08
  2394.88    0.2765E-05    0.2764E-05    0.1019E-08
  2397.19    0.2774E-05    0.2773E-05    0.1022E-08
  2399.50    0.2782E-05    0.2781E-05    0.1025E-08
  2401.82    0.2791E-05    0.2790E-05    0.1027E-08
  2404.13    0.2799E-05    0.2798E-05    0.1030E-08
  2406.45    0.2808E-05    0.2807E-05    0.1033E-08
  2408.76    0.2817E-05    0.2816E-05    0.1036E-08
  2411.08    0.2825E-05    0.2824E-05    0.1039E-08
  2413.39    0.2834E-05    0.2833E-05    0.1041E-08
  2415.71    0.2843E-05    0.2842E-05    0.1044E-08
  2418.02    0.2852E-05    0.2851E-05    0.1047E-08
  2420.34    0.2861E-05    0.2860E-05    0.1050E-08
  2422.65    0.2870E-05    0.2869E-05    0.1053E-08
  2424.97    0.2879E-05    0.2878E-05    0.1056E-08
  2427.28    0.2889E-05    0.2888E-05    0.1059E-08
  2429.60    0.2898E-05    0.2897E-05    0.1062E-08
  2431.91    0.2907E-05    0.2906E-05    0.1065E-08
  2434.22    0.2917E-05    0.2915E-05    0.1068E-08
  2436.54    0.2926E-05    0.2925E-05    0.1071E-08
  2438.85    0.2936E-05    0.2934E-05    0.1074E-08
  2441.17    0.2945E-05    0.2944E-05    0.1078E-08
  2443.48    0.2955E-05    0.2954E-05    0.1081E-08
  2445.80    0.2964E-05    0.2963E-05    0.1084E-08
  2448.11    0.2974E-05    0.2973E-05    0.1087E-08
  2450.43    0.2984E-05    0.2983E-05    0.1090E-08
  2452.74    0.2994E-05    0.2993E-05    0.1094E-08
  2455.06    0.3004E-05    0.3003E-05    0.1097E-08
  2457.37    0.3014E-05    0.3013E-05    0.1100E-08
  2459.69    0.3024E-05    0.3023E-05    0.1104E-08
  2462.00    0.3034E-05    0.3033E-05    0.1107E-08
  2464.32    0.3044E-05    0.3043E-05    0.1110E-08
  2466.63    0.3055E-05    0.3054E-05    0.1114E-08
  2468.94    0.3065E-05    0.3064E-05    0.1117E-08
  2471.26    0.3076E-05    0.3074E-05    0.1121E-08
  2473.57    0.3086E-05    0.3085E-05    0.1124E-08
  2475.89    0.3097E-05    0.3095E-05    0.1128E-08
  2478.20    0.3107E-05    0.3106E-05    0.1131E-08
  2480.52    0.3118E-05    0.3117E-05    0.1135E-08
  2482.83    0.3129E-05    0.3128E-05    0.1138E-08
  2485.15    0.3140E-05    0.3138E-05    0.1142E-08
  2487.46    0.3151E-05    0.3149E-05    0.1146E-08
  2489.78    0.3162E-05    0.3160E-05    0.1149E-08
  2492.09    0.3173E-05    0.3171E-05    0.1153E-08
  2494.41    0.3184E-05    0.3183E-05    0.1157E-08
  2496.72    0.3195E-05    0.3194E-05    0.1161E-08
  2499.04    0.3206E-05    0.3205E-05    0.1164E-08
  2501.35    0.3218E-05    0.3216E-05    0.1168E-08
  2503.66    0.3229E-05    0.3228E-05    0.1172E-08
  2505.98    0.3240E-05    0.3239E-05    0.1176E-08
  2508.29    0.3252E-05    0.3251E-05    0.1180E-08
  2510.61    0.3264E-05    0.3263E-05    0.1184E-08
  2512.92    0.3275E-05    0.3274E-05    0.1188E-08
  2515.24    0.3287E-05    0.3286E-05    0.1192E-08
  2517.55    0.3299E-05    0.3298E-05    0.1196E-08
  2519.87    0.3311E-05    0.3310E-05    0.1200E-08
  2522.18    0.3323E-05    0.3322E-05    0.1204E-08
  2524.50    0.3335E-05    0.3334E-05    0.1208E-08
  2526.81    0.3348E-05    0.3346E-05    0.1212E-08
  2529.13    0.3360E-05    0.3359E-05    0.1216E-08
  2531.44    0.3372E-05    0.3371E-05    0.1220E-08
  2533.76    0.3385E-05    0.3383E-05    0.1225E-08
  2536.07    0.3397E-05    0.3396E-05    0.1229E-08
  2538.38    0.3410E-05    0.3409E-05    0.1233E-08
  2540.70    0.3422E-05    0.3421E-05    0.1237E-08
  2543.01    0.3435E-05    0.3434E-05    0.1242E-08
  2545.33    0.3448E-05    0.3447E-05    0.1246E-08
  2547.64    0.3461E-05    0.3460E-05    0.1251E-08
  2549.96    0.3474E-05    0.3473E-05    0.1255E-08
  2552.27    0.3487E-05    0.3486E-05    0.1259E-08
  2554.59    0.3500E-05    0.3499E-05    0.1264E-08
  2556.90    0.3514E-05    0.3512E-05    0.1268E-08
  2559.22    0.3527E-05    0.3526E-05    0.1273E-08
  2561.53    0.3541E-05    0.3539E-05    0.1278E-08
  2563.85    0.3554E-05    0.3553E-05    0.1282E-08
  2566.16    0.3568E-05    0.3566E-05    0.1287E-08
  2568.48    0.3582E-05    0.3580E-05    0.1292E-08
  2570.79    0.3595E-05    0.3594E-05    0.1296E-08
  2573.10    0.3609E-05    0.3608E-05    0.1301E-08
  2575.42    0.3623E-05    0.3622E-05    0.1306E-08
  2577.73    0.3637E-05    0.3636E-05    0.1311E-08
  2580.05    0.3652E-05    0.3650E-05    0.1315E-08
  2582.36    0.3666E-05    0.3665E-05    0.1320E-08
  2584.68    0.3680E-05    0.3679E-05    0.1325E-08
  2586.99    0.3695E-05    0.3693E-05    0.1330E-08
  2589.31    0.3709E-05    0.3708E-05    0.1335E-08
  2591.62    0.3724E-05    0.3723E-05    0.1340E-08
  2593.94    0.3739E-05    0.3738E-05    0.1345E-08
  2596.25    0.3754E-05    0.3752E-05    0.1350E-08
  2598.57    0.3769E-05    0.3767E-05    0.1356E-08
  2600.88    0.3784E-05    0.3782E-05    0.1361E-08
  2603.20    0.3799E-05    0.3798E-05    0.1366E-08
  2605.51    0.3814E-05    0.3813E-05    0.1371E-08
  2607.83    0.3830E-05    0.3828E-05    0.1377E-08
  2610.14    0.3845E-05    0.3844E-05    0.1382E-08
  2612.45    0.3861E-05    0.3859E-05    0.1387E-08
  2614.77    0.3877E-05    0.3875E-05    0.1393E-08
  2617.08    0.3892E-05    0.3891E-05    0.1398E-08
  2619.40    0.3908E-05    0.3907E-05    0.1404E-08
  2621.71    0.3924E-05    0.3923E-05    0.1409E-08
  2624.03    0.3941E-05    0.3939E-05    0.1415E-08
  2626.34    0.3957E-05    0.3955E-05    0.1420E-08
  2628.66    0.3973E-05    0.3972E-05    0.1426E-08
  2630.97    0.3990E-05    0.3988E-05    0.1432E-08
  2633.29    0.4006E-05    0.4005E-05    0.1437E-08
  2635.60    0.4023E-05    0.4021E-05    0.1443E-08
  2637.92    0.4040E-05    0.4038E-05    0.1449E-08
  2640.23    0.4057E-05    0.4055E-05    0.1455E-08
  2642.55    0.4074E-05    0.4072E-05    0.1461E-08
  2644.86    0.4091E-05    0.4089E-05    0.1466E-08
  2647.17    0.4108E-05    0.4107E-05    0.1472E-08
  2649.49    0.4126E-05    0.4124E-05    0.1478E-08
  2651.80    0.4143E-05    0.4142E-05    0.1485E-08
  2654.12    0.4161E-05    0.4159E-05    0.1491E-08
  2656.43    0.4179E-05    0.4177E-05    0.1497E-08
  2658.75    0.4197E-05    0.4195E-05    0.1503E-08
  2661.06    0.4215E-05    0.4213E-05    0.1509E-08
  2663.38    0.4233E-05    0.4231E-05    0.1515E-08
  2665.69    0.4251E-05    0.4249E-05    0.1522E-08
  2668.01    0.4269E-05    0.4268E-05    0.1528E-08
  2670.32    0.4288E-05    0.4286E-05    0.1535E-08
  2672.64    0.4307E-05    0.4305E-05    0.1541E-08
  2674.95    0.4325E-05    0.4324E-05    0.1548E-08
  2677.27    0.4344E-05    0.4343E-05    0.1554E-08
  2679.58    0.4363E-05    0.4362E-05    0.1561E-08
  2681.89    0.4383E-05    0.4381E-05    0.1567E-08
  2684.21    0.4402E-05    0.4400E-05    0.1574E-08
  2686.52    0.4422E-05    0.4420E-05    0.1581E-08
  2688.84    0.4441E-05    0.4440E-05    0.1588E-08
  2691.15    0.4461E-05    0.4459E-05    0.1594E-08
  2693.47    0.4481E-05    0.4479E-05    0.1601E-08
  2695.78    0.4501E-05    0.4499E-05    0.1608E-08
  2698.10    0.4521E-05    0.4519E-05    0.1615E-08
  2700.41    0.4541E-05    0.4540E-05    0.1622E-08
  2702.73    0.4562E-05    0.4560E-05    0.1630E-08
  2705.04    0.4583E-05    0.4581E-05    0.1637E-08
  2707.36    0.4603E-05    0.4602E-05    0.1644E-08
  2709.67    0.4624E-05    0.4623E-05    0.1651E-08
  2711.99    0.4645E-05    0.4644E-05    0.1658E-08
  2714.30    0.4667E-05    0.4665E-05    0.1666E-08
  2716.61    0.4688E-05    0.4686E-05    0.1673E-08
  2718.93    0.4710E-05    0.4708E-05    0.1681E-08
  2721.24    0.4731E-05    0.4730E-05    0.1688E-08
  2723.56    0.4753E-05    0.4751E-05    0.1696E-08
  2725.87    0.4775E-05    0.4774E-05    0.1704E-08
  2728.19    0.4797E-05    0.4796E-05    0.1711E-08
  2730.50    0.4820E-05    0.4818E-05    0.1719E-08
  2732.82    0.4842E-05    0.4841E-05    0.1727E-08
  2735.13    0.4865E-05    0.4863E-05    0.1735E-08
  2737.45    0.4888E-05    0.4886E-05    0.1743E-08
  2739.76    0.4911E-05    0.4909E-05    0.1751E-08
  2742.08    0.4934E-05    0.4932E-05    0.1759E-08
  2744.39    0.4957E-05    0.4956E-05    0.1767E-08
  2746.71    0.4981E-05    0.4979E-05    0.1775E-08
  2749.02    0.5005E-05    0.5003E-05    0.1784E-08
  2751.33    0.5029E-05    0.5027E-05    0.1792E-08
  2753.65    0.5053E-05    0.5051E-05    0.1800E-08
  2755.96    0.5077E-05    0.5075E-05    0.1809E-08
  2758.28    0.5102E-05    0.5100E-05    0.1817E-08
  2760.59    0.5126E-05    0.5124E-05    0.1826E-08
  2762.91    0.5151E-05    0.5149E-05    0.1834E-08
  2765.22    0.5176E-05    0.5174E-05    0.1843E-08
  2767.54    0.5201E-05    0.5199E-05    0.1852E-08
  2769.85    0.5227E-05    0.5225E-05    0.1861E-08
  2772.17    0.5252E-05    0.5250E-05    0.1870E-08
  2774.48    0.5278E-05    0.5276E-05    0.1879E-08
  2776.80    0.5304E-05    0.5302E-05    0.1888E-08
  2779.11    0.5330E-05    0.5328E-05    0.1897E-08
  2781.43    0.5357E-05    0.5355E-05    0.1906E-08
  2783.74    0.5383E-05    0.5381E-05    0.1915E-08
  2786.05    0.5410E-05    0.5408E-05    0.1925E-08
  2788.37    0.5437E-05    0.5435E-05    0.1934E-08
  2790.68    0.5464E-05    0.5462E-05    0.1944E-08
  2793.00    0.5492E-05    0.5490E-05    0.1953E-08
  2795.31    0.5520E-05    0.5518E-05    0.1963E-08
  2797.63    0.5547E-05    0.5545E-05    0.1973E-08
  2799.94    0.5576E-05    0.5574E-05    0.1983E-08
  2802.26    0.5604E-05    0.5602E-05    0.1992E-08
  2804.57    0.5632E-05    0.5630E-05    0.2002E-08
  2806.89    0.5661E-05    0.5659E-05    0.2012E-08
  2809.20    0.5690E-05    0.5688E-05    0.2023E-08
  2811.52    0.5720E-05    0.5717E-05    0.2033E-08
  2813.83    0.5749E-05    0.5747E-05    0.2043E-08
  2816.15    0.5779E-05    0.5777E-05    0.2054E-08
  2818.46    0.5809E-05    0.5807E-05    0.2064E-08
  2820.77    0.5839E-05    0.5837E-05    0.2075E-08
  2823.09    0.5869E-05    0.5867E-05    0.2085E-08
  2825.40    0.5900E-05    0.5898E-05    0.2096E-08
  2827.72    0.5931E-05    0.5929E-05    0.2107E-08
  2830.03    0.5962E-05    0.5960E-05    0.2118E-08
  2832.35    0.5994E-05    0.5991E-05    0.2129E-08
  2834.66    0.6025E-05    0.6023E-05    0.2140E-08
  2836.98    0.6057E-05    0.6055E-05    0.2151E-08
  2839.29    0.6090E-05    0.6087E-05    0.2162E-08
  2841.61    0.6122E-05    0.6120E-05    0.2174E-08
  2843.92    0.6155E-05    0.6153E-05    0.2185E-08
  2846.24    0.6188E-05    0.6186E-05    0.2197E-08
  2848.55    0.6221E-05    0.6219E-05    0.2208E-08
  2850.87    0.6255E-05    0.6253E-05    0.2220E-08
  2853.18    0.6289E-05    0.6286E-05    0.2232E-08
  2855.49    0.6323E-05    0.6321E-05    0.2244E-08
  2857.81    0.6357E-05    0.6355E-05    0.2256E-08
  2860.12    0.6392E-05    0.6390E-05    0.2268E-08
  2862.44    0.6427E-05    0.6425E-05    0.2280E-08
  2864.75    0.6462E-05    0.6460E-05    0.2293E-08
  2867.07    0.6498E-05    0.6496E-05    0.2305E-08
  2869.38    0.6534E-05    0.6532E-05    0.2318E-08
  2871.70    0.6570E-05    0.6568E-05    0.2330E-08
  2874.01    0.6607E-05    0.6604E-05    0.2343E-08
  2876.33    0.6644E-05    0.6641E-05    0.2356E-08
  2878.64    0.6681E-05    0.6678E-05    0.2369E-08
  2880.96    0.6718E-05    0.6716E-05    0.2382E-08
  2883.27    0.6756E-05    0.6754E-05    0.2395E-08
  2885.59    0.6794E-05    0.6792E-05    0.2409E-08
  2887.90    0.6833E-05    0.6830E-05    0.2422E-08
  2890.21    0.6872E-05    0.6869E-05    0.2436E-08
  2892.53    0.6911E-05    0.6908E-05    0.2450E-08
  2894.84    0.6950E-05    0.6948E-05    0.2464E-08
  2897.16    0.6990E-05    0.6988E-05    0.2477E-08
  2899.47    0.7030E-05    0.7028E-05    0.2492E-08
  2901.79    0.7071E-05    0.7068E-05    0.2506E-08
  2904.10    0.7112E-05    0.7109E-05    0.2520E-08
  2906.42    0.7153E-05    0.7151E-05    0.2535E-08
  2908.73    0.7195E-05    0.7192E-05    0.2549E-08
  2911.05    0.7237E-05    0.7234E-05    0.2564E-08
  2913.36    0.7279E-05    0.7277E-05    0.2579E-08
  2915.68    0.7322E-05    0.7319E-05    0.2594E-08
  2917.99    0.7365E-05    0.7363E-05    0.2609E-08
  2920.31    0.7409E-05    0.7406E-05    0.2624E-08
  2922.62    0.7453E-05    0.7450E-05    0.2640E-08
  2924.93    0.7497E-05    0.7494E-05    0.2655E-08
  2927.25    0.7542E-05    0.7539E-05    0.2671E-08
  2929.56    0.7587E-05    0.7584E-05    0.2687E-08
  2931.88    0.7633E-05    0.7630E-05    0.2703E-08
  2934.19    0.7679E-05    0.7676E-05    0.2719E-08
  2936.51    0.7725E-05    0.7722E-05    0.2735E-08
  2938.82    0.7772E-05    0.7769E-05    0.2752E-08
  2941.14    0.7819E-05    0.7816E-05    0.2768E-08
  2943.45    0.7867E-05    0.7864E-05    0.2785E-08
  2945.77    0.7915E-05    0.7912E-05    0.2802E-08
  2948.08    0.7964E-05    0.7961E-05    0.2819E-08
  2950.40    0.8013E-05    0.8010E-05    0.2836E-08
  2952.71    0.8063E-05    0.8060E-05    0.2854E-08
  2955.03    0.8113E-05    0.8110E-05    0.2871E-08
  2957.34    0.8163E-05    0.8160E-05    0.2889E-08
  2959.65    0.8214E-05    0.8211E-05    0.2907E-08
  2961.97    0.8266E-05    0.8263E-05    0.2925E-08
  2964.28    0.8318E-05    0.8315E-05    0.2943E-08
  2966.60    0.8370E-05    0.8367E-05    0.2961E-08
  2968.91    0.8423E-05    0.8420E-05    0.2980E-08
  2971.23    0.8477E-05    0.8474E-05    0.2999E-08
  2973.54    0.8531E-05    0.8528E-05    0.3018E-08
  2975.86    0.8585E-05    0.8582E-05    0.3037E-08
  2978.17    0.8640E-05    0.8637E-05    0.3056E-08
  2980.49    0.8696E-05    0.8693E-05    0.3076E-08
  2982.80    0.8752E-05    0.8749E-05    0.3096E-08
  2985.12    0.8809E-05    0.8806E-05    0.3115E-08
  2987.43    0.8866E-05    0.8863E-05    0.3136E-08
  2989.75    0.8924E-05    0.8921E-05    0.3156E-08
  2992.06    0.8982E-05    0.8979E-05    0.3176E-08
  2994.37    0.9041E-05    0.9038E-05    0.3197E-08
  2996.69    0.9101E-05    0.9098E-05    0.3218E-08
  2999.00    0.9161E-05    0.9158E-05    0.3239E-08
  3001.32    0.9222E-05    0.9219E-05    0.3261E-08
  3003.63    0.9284E-05    0.9280E-05    0.3282E-08
  3005.95    0.9346E-05    0.9342E-05    0.3304E-08
  3008.26    0.9408E-05    0.9405E-05    0.3326E-08
  3010.58    0.9472E-05    0.9468E-05    0.3348E-08
  3012.89    0.9536E-05    0.9532E-05    0.3371E-08
  3015.21    0.9600E-05    0.9597E-05    0.3393E-08
  3017.52    0.9666E-05    0.9662E-05    0.3416E-08
  3019.84    0.9732E-05    0.9728E-05    0.3440E-08
  3022.15    0.9798E-05    0.9795E-05    0.3463E-08
  3024.47    0.9866E-05    0.9862E-05    0.3487E-08
  3026.78    0.9934E-05    0.9930E-05    0.3511E-08
  3029.09    0.1000E-04    0.9999E-05    0.3535E-08
  3031.41    0.1007E-04    0.1007E-04    0.3559E-08
  3033.72    0.1014E-04    0.1014E-04    0.3584E-08
  3036.04    0.1021E-04    0.1021E-04    0.3609E-08
  3038.35    0.1029E-04    0.1028E-04    0.3634E-08
  3040.67    0.1036E-04    0.1035E-04    0.3659E-08
  3042.98    0.1043E-04    0.1043E-04    0.3685E-08
  3045.30    0.1051E-04    0.1050E-04    0.3711E-08
  3047.61    0.1058E-04    0.1058E-04    0.3738E-08
  3049.93    0.1066E-04    0.1065E-04    0.3764E-08
  3052.24    0.1073E-04    0.1073E-04    0.3791E-08
  3054.56    0.1081E-04    0.1081E-04    0.3818E-08
  3056.87    0.1089E-04    0.1088E-04    0.3846E-08
  3059.19    0.1097E-04    0.1096E-04    0.3874E-08
  3061.50    0.1105E-04    0.1104E-04    0.3902E-08
  3063.81    0.1113E-04    0.1112E-04    0.3930E-08
  3066.13    0.1121E-04    0.1121E-04    0.3959E-08
  3068.44    0.1129E-04    0.1129E-04    0.3988E-08
  3070.76    0.1138E-04    0.1137E-04    0.4017E-08
  3073.07    0.1146E-04    0.1146E-04    0.4047E-08
  3075.39    0.1155E-04    0.1154E-04    0.4077E-08
  3077.70    0.1163E-04    0.1163E-04    0.4108E-08
  3080.02    0.1172E-04    0.1172E-04    0.4138E-08
  3082.33    0.1181E-04    0.1180E-04    0.4169E-08
  3084.65    0.1190E-04    0.1189E-04    0.4201E-08
  3086.96    0.1199E-04    0.1198E-04    0.4233E-08
  3089.28    0.1208E-04    0.1208E-04    0.4265E-08
  3091.59    0.1217E-04    0.1217E-04    0.4297E-08
  3093.91    0.1227E-04    0.1226E-04    0.4330E-08
  3096.22    0.1236E-04    0.1236E-04    0.4364E-08
  3098.54    0.1246E-04    0.1245E-04    0.4397E-08
  3100.85    0.1255E-04    0.1255E-04    0.4432E-08
  3103.16    0.1265E-04    0.1265E-04    0.4466E-08
  3105.48    0.1275E-04    0.1275E-04    0.4501E-08
  3107.79    0.1285E-04    0.1285E-04    0.4536E-08
  3110.11    0.1295E-04    0.1295E-04    0.4572E-08
  3112.42    0.1306E-04    0.1305E-04    0.4608E-08
  3114.74    0.1316E-04    0.1316E-04    0.4645E-08
  3117.05    0.1327E-04    0.1326E-04    0.4682E-08
  3119.37    0.1337E-04    0.1337E-04    0.4720E-08
  3121.68    0.1348E-04    0.1348E-04    0.4758E-08
  3124.00    0.1359E-04    0.1359E-04    0.4796E-08
  3126.31    0.1370E-04    0.1370E-04    0.4835E-08
  3128.63    0.1381E-04    0.1381E-04    0.4874E-08
  3130.94    0.1393E-04    0.1392E-04    0.4914E-08
  3133.26    0.1404E-04    0.1404E-04    0.4955E-08
  3135.57    0.1416E-04    0.1415E-04    0.4996E-08
  3137.88    0.1428E-04    0.1427E-04    0.5037E-08
  3140.20    0.1440E-04    0.1439E-04    0.5079E-08
  3142.51    0.1452E-04    0.1451E-04    0.5122E-08
  3144.83    0.1464E-04    0.1463E-04    0.5165E-08
  3147.14    0.1476E-04    0.1476E-04    0.5208E-08
  3149.46    0.1489E-04    0.1488E-04    0.5253E-08
  3151.77    0.1502E-04    0.1501E-04    0.5297E-08
  3154.09    0.1515E-04    0.1514E-04    0.5343E-08
  3156.40    0.1528E-04    0.1527E-04    0.5388E-08
  3158.72    0.1541E-04    0.1540E-04    0.5435E-08
  3161.03    0.1554E-04    0.1554E-04    0.5482E-08
  3163.35    0.1568E-04    0.1567E-04    0.5530E-08
  3165.66    0.1582E-04    0.1581E-04    0.5578E-08
  3167.98    0.1595E-04    0.1595E-04    0.5627E-08
  3170.29    0.1610E-04    0.1609E-04    0.5677E-08
  3172.60    0.1624E-04    0.1623E-04    0.5727E-08
  3174.92    0.1638E-04    0.1638E-04    0.5778E-08
  3177.23    0.1653E-04    0.1653E-04    0.5830E-08
  3179.55    0.1668E-04    0.1667E-04    0.5882E-08
  3181.86    0.1683E-04    0.1683E-04    0.5936E-08
  3184.18    0.1698E-04    0.1698E-04    0.5989E-08
  3186.49    0.1714E-04    0.1713E-04    0.6044E-08
  3188.81    0.1730E-04    0.1729E-04    0.6099E-08
  3191.12    0.1746E-04    0.1745E-04    0.6156E-08
  3193.44    0.1762E-04    0.1761E-04    0.6213E-08
  3195.75    0.1778E-04    0.1778E-04    0.6270E-08
  3198.07    0.1795E-04    0.1794E-04    0.6329E-08
  3200.38    0.1812E-04    0.1811E-04    0.6388E-08
  3202.70    0.1829E-04    0.1828E-04    0.6449E-08
  3205.01    0.1846E-04    0.1846E-04    0.6510E-08
  3207.32    0.1864E-04    0.1863E-04    0.6572E-08
  3209.64    0.1882E-04    0.1881E-04    0.6634E-08
  3211.95    0.1900E-04    0.1899E-04    0.6698E-08
  3214.27    0.1918E-04    0.1918E-04    0.6763E-08
  3216.58    0.1937E-04    0.1936E-04    0.6829E-08
  3218.90    0.1956E-04    0.1955E-04    0.6895E-08
  3221.21    0.1975E-04    0.1974E-04    0.6963E-08
  3223.53    0.1995E-04    0.1994E-04    0.7032E-08
  3225.84    0.2015E-04    0.2014E-04    0.7101E-08
  3228.16    0.2035E-04    0.2034E-04    0.7172E-08
  3230.47    0.2055E-04    0.2054E-04    0.7244E-08
  3232.79    0.2076E-04    0.2075E-04    0.7317E-08
  3235.10    0.2097E-04    0.2096E-04    0.7391E-08
  3237.42    0.2118E-04    0.2117E-04    0.7466E-08
  3239.73    0.2140E-04    0.2139E-04    0.7542E-08
  3242.04    0.2162E-04    0.2161E-04    0.7620E-08
  3244.36    0.2184E-04    0.2184E-04    0.7699E-08
  3246.67    0.2207E-04    0.2206E-04    0.7779E-08
  3248.99    0.2230E-04    0.2229E-04    0.7860E-08
  3251.30    0.2254E-04    0.2253E-04    0.7942E-08
  3253.62    0.2277E-04    0.2277E-04    0.8026E-08
  3255.93    0.2302E-04    0.2301E-04    0.8112E-08
  3258.25    0.2326E-04    0.2325E-04    0.8198E-08
  3260.56    0.2351E-04    0.2350E-04    0.8286E-08
  3262.88    0.2377E-04    0.2376E-04    0.8375E-08
  3265.19    0.2402E-04    0.2402E-04    0.8466E-08
  3267.51    0.2429E-04    0.2428E-04    0.8559E-08
  3269.82    0.2455E-04    0.2455E-04    0.8653E-08
  3272.14    0.2483E-04    0.2482E-04    0.8748E-08
  3274.45    0.2510E-04    0.2509E-04    0.8845E-08
  3276.76    0.2538E-04    0.2537E-04    0.8944E-08
  3279.08    0.2567E-04    0.2566E-04    0.9044E-08
  3281.39    0.2596E-04    0.2595E-04    0.9147E-08
  3283.71    0.2625E-04    0.2624E-04    0.9250E-08
  3286.02    0.2655E-04    0.2654E-04    0.9356E-08
  3288.34    0.2686E-04    0.2685E-04    0.9464E-08
  3290.65    0.2717E-04    0.2716E-04    0.9573E-08
  3292.97    0.2749E-04    0.2748E-04    0.9684E-08
  3295.28    0.2781E-04    0.2780E-04    0.9798E-08
  3297.60    0.2814E-04    0.2813E-04    0.9913E-08
  3299.91    0.2847E-04    0.2846E-04    0.1003E-07
  3302.23    0.2881E-04    0.2880E-04    0.1015E-07
  3304.54    0.2915E-04    0.2914E-04    0.1027E-07
  3306.86    0.2951E-04    0.2950E-04    0.1040E-07
  3309.17    0.2986E-04    0.2985E-04    0.1052E-07
  3311.48    0.3023E-04    0.3022E-04    0.1065E-07
  3313.80    0.3060E-04    0.3059E-04    0.1078E-07
  3316.11    0.3098E-04    0.3097E-04    0.1091E-07
  3318.43    0.3137E-04    0.3135E-04    0.1105E-07
  3320.74    0.3176E-04    0.3175E-04    0.1119E-07
  3323.06    0.3216E-04    0.3215E-04    0.1133E-07
  3325.37    0.3257E-04    0.3256E-04    0.1147E-07
  3327.69    0.3298E-04    0.3297E-04    0.1162E-07
  3330.00    0.3341E-04    0.3340E-04    0.1177E-07
  3332.32    0.3384E-04    0.3383E-04    0.1192E-07
  3334.63    0.3428E-04    0.3427E-04    0.1208E-07
  3336.95    0.3473E-04    0.3472E-04    0.1223E-07
  3339.26    0.3519E-04    0.3518E-04    0.1240E-07
  3341.58    0.3566E-04    0.3565E-04    0.1256E-07
  3343.89    0.3614E-04    0.3612E-04    0.1273E-07
  3346.20    0.3662E-04    0.3661E-04    0.1290E-07
  3348.52    0.3712E-04    0.3711E-04    0.1308E-07
  3350.83    0.3763E-04    0.3762E-04    0.1325E-07
  3353.15    0.3815E-04    0.3813E-04    0.1344E-07
  3355.46    0.3868E-04    0.3866E-04    0.1362E-07
  3357.78    0.3922E-04    0.3920E-04    0.1381E-07
  3360.09    0.3977E-04    0.3975E-04    0.1401E-07
  3362.41    0.4033E-04    0.4032E-04    0.1421E-07
  3364.72    0.4091E-04    0.4089E-04    0.1441E-07
  3367.04    0.4150E-04    0.4148E-04    0.1462E-07
  3369.35    0.4210E-04    0.4208E-04    0.1483E-07
  3371.67    0.4271E-04    0.4270E-04    0.1504E-07
  3373.98    0.4334E-04    0.4332E-04    0.1526E-07
  3376.30    0.4398E-04    0.4397E-04    0.1549E-07
  3378.61    0.4464E-04    0.4462E-04    0.1572E-07
  3380.92    0.4531E-04    0.4529E-04    0.1596E-07
  3383.24    0.4600E-04    0.4598E-04    0.1620E-07
  3385.55    0.4670E-04    0.4668E-04    0.1645E-07
  3387.87    0.4742E-04    0.4740E-04    0.1670E-07
  3390.18    0.4815E-04    0.4814E-04    0.1696E-07
  3392.50    0.4891E-04    0.4889E-04    0.1722E-07
  3394.81    0.4968E-04    0.4966E-04    0.1750E-07
  3397.13    0.5047E-04    0.5045E-04    0.1777E-07
  3399.44    0.5128E-04    0.5126E-04    0.1806E-07
  3401.76    0.5211E-04    0.5209E-04    0.1835E-07
  3404.07    0.5296E-04    0.5294E-04    0.1865E-07
  3406.39    0.5383E-04    0.5381E-04    0.1896E-07
  3408.70    0.5472E-04    0.5470E-04    0.1927E-07
  3411.02    0.5563E-04    0.5561E-04    0.1959E-07
  3413.33    0.5657E-04    0.5655E-04    0.1992E-07
  3415.64    0.5753E-04    0.5751E-04    0.2026E-07
  3417.96    0.5852E-04    0.5850E-04    0.2061E-07
  3420.27    0.5953E-04    0.5951E-04    0.2096E-07
  3422.59    0.6057E-04    0.6055E-04    0.2133E-07
  3424.90    0.6164E-04    0.6162E-04    0.2171E-07
  3427.22    0.6273E-04    0.6271E-04    0.2209E-07
  3429.53    0.6386E-04    0.6384E-04    0.2249E-07
  3431.85    0.6502E-04    0.6499E-04    0.2289E-07
  3434.16    0.6620E-04    0.6618E-04    0.2331E-07
  3436.48    0.6743E-04    0.6740E-04    0.2374E-07
  3438.79    0.6868E-04    0.6866E-04    0.2419E-07
  3441.11    0.6997E-04    0.6995E-04    0.2464E-07
  3443.42    0.7130E-04    0.7128E-04    0.2511E-07
  3445.74    0.7267E-04    0.7265E-04    0.2559E-07
  3448.05    0.7408E-04    0.7405E-04    0.2608E-07
  3450.36    0.7553E-04    0.7550E-04    0.2659E-07
  3452.68    0.7702E-04    0.7699E-04    0.2712E-07
  3454.99    0.7856E-04    0.7853E-04    0.2766E-07
  3457.31    0.8014E-04    0.8012E-04    0.2822E-07
  3459.62    0.8178E-04    0.8175E-04    0.2879E-07
  3461.94    0.8346E-04    0.8343E-04    0.2939E-07
  3464.25    0.8520E-04    0.8517E-04    0.3000E-07
  3466.57    0.8699E-04    0.8696E-04    0.3063E-07
  3468.88    0.8884E-04    0.8881E-04    0.3128E-07
  3471.20    0.9076E-04    0.9072E-04    0.3196E-07
  3473.51    0.9273E-04    0.9270E-04    0.3265E-07
  3475.83    0.9477E-04    0.9474E-04    0.3337E-07
  3478.14    0.9688E-04    0.9684E-04    0.3411E-07
  3480.46    0.9906E-04    0.9902E-04    0.3488E-07
  3482.77    0.1013E-03    0.1013E-03    0.3567E-07
  3485.08    0.1036E-03    0.1036E-03    0.3649E-07
  3487.40    0.1061E-03    0.1060E-03    0.3735E-07
  3489.71    0.1086E-03    0.1085E-03    0.3823E-07
  3492.03    0.1112E-03    0.1111E-03    0.3914E-07
  3494.34    0.1139E-03    0.1138E-03    0.4009E-07
  3496.66    0.1166E-03    0.1166E-03    0.4107E-07
  3498.97    0.1195E-03    0.1195E-03    0.4209E-07
  3501.29    0.1225E-03    0.1225E-03    0.4314E-07
  3503.60    0.1257E-03    0.1256E-03    0.4424E-07
  3505.92    0.1289E-03    0.1289E-03    0.4538E-07
  3508.23    0.1323E-03    0.1322E-03    0.4657E-07
  3510.55    0.1358E-03    0.1357E-03    0.4781E-07
  3512.86    0.1394E-03    0.1394E-03    0.4909E-07
  3515.18    0.1432E-03    0.1432E-03    0.5043E-07
  3517.49    0.1472E-03    0.1471E-03    0.5182E-07
  3519.80    0.1513E-03    0.1513E-03    0.5327E-07
  3522.12    0.1556E-03    0.1556E-03    0.5479E-07
  3524.43    0.1601E-03    0.1601E-03    0.5637E-07
  3526.75    0.1648E-03    0.1647E-03    0.5802E-07
  3529.06    0.1697E-03    0.1696E-03    0.5975E-07
  3531.38    0.1748E-03    0.1748E-03    0.6156E-07
  3533.69    0.1802E-03    0.1801E-03    0.6345E-07
  3536.01    0.1858E-03    0.1858E-03    0.6543E-07
  3538.32    0.1917E-03    0.1917E-03    0.6750E-07
  3540.64    0.1979E-03    0.1978E-03    0.6968E-07
  3542.95    0.2044E-03    0.2043E-03    0.7196E-07
  3545.27    0.2112E-03    0.2111E-03    0.7436E-07
  3547.58    0.2184E-03    0.2183E-03    0.7689E-07
  3549.90    0.2259E-03    0.2258E-03    0.7954E-07
  3552.21    0.2339E-03    0.2338E-03    0.8234E-07
  3554.52    0.2422E-03    0.2422E-03    0.8529E-07
  3556.84    0.2511E-03    0.2510E-03    0.8840E-07
  3559.15    0.2604E-03    0.2603E-03    0.9169E-07
  3561.47    0.2703E-03    0.2702E-03    0.9517E-07
  3563.78    0.2808E-03    0.2807E-03    0.9885E-07
  3566.10    0.2918E-03    0.2917E-03    0.1028E-06
  3568.41    0.3036E-03    0.3035E-03    0.1069E-06
  3570.73    0.3161E-03    0.3160E-03    0.1113E-06
  3573.04    0.3294E-03    0.3293E-03    0.1160E-06
  3575.36    0.3435E-03    0.3434E-03    0.1210E-06
  3577.67    0.3586E-03    0.3585E-03    0.1263E-06
  3579.99    0.3748E-03    0.3746E-03    0.1320E-06
  3582.30    0.3920E-03    0.3919E-03    0.1380E-06
  3584.62    0.4105E-03    0.4104E-03    0.1445E-06
  3586.93    0.4304E-03    0.4302E-03    0.1515E-06
  3589.25    0.4517E-03    0.4515E-03    0.1590E-06
  3591.56    0.4747E-03    0.4745E-03    0.1671E-06
  3593.87    0.4994E-03    0.4993E-03    0.1758E-06
  3596.19    0.5263E-03    0.5261E-03    0.1853E-06
  3598.50    0.5553E-03    0.5551E-03    0.1955E-06
  3600.82    0.5868E-03    0.5866E-03    0.2066E-06
  3603.13    0.6212E-03    0.6209E-03    0.2187E-06
  3605.45    0.6586E-03    0.6584E-03    0.2319E-06
  3607.76    0.6996E-03    0.6993E-03    0.2463E-06
  3610.08    0.7445E-03    0.7443E-03    0.2621E-06
  3612.39    0.7940E-03    0.7937E-03    0.2796E-06
  3614.71    0.8486E-03    0.8483E-03    0.2988E-06
  3617.02    0.9090E-03    0.9087E-03    0.3201E-06
  3619.34    0.9762E-03    0.9759E-03    0.3437E-06
  3621.65    0.1051E-02    0.1051E-02    0.3701E-06
  3623.97    0.1135E-02    0.1135E-02    0.3997E-06
  3626.28    0.1229E-02    0.1229E-02    0.4329E-06
  3628.59    0.1336E-02    0.1336E-02    0.4705E-06
  3630.91    0.1457E-02    0.1457E-02    0.5131E-06
  3633.22    0.1596E-02    0.1595E-02    0.5619E-06
  3635.54    0.1755E-02    0.1754E-02    0.6179E-06
  3637.85    0.1939E-02    0.1938E-02    0.6826E-06
  3640.17    0.2152E-02    0.2152E-02    0.7579E-06
  3642.48    0.2403E-02    0.2403E-02    0.8463E-06
  3644.80    0.2700E-02    0.2699E-02    0.9507E-06
  3647.11    0.3054E-02    0.3053E-02    0.1075E-05
  3649.43    0.3480E-02    0.3479E-02    0.1225E-05
  3651.74    0.3999E-02    0.3998E-02    0.1408E-05
  3654.06    0.4638E-02    0.4636E-02    0.1633E-05
  3656.37    0.5434E-02    0.5432E-02    0.1913E-05
  3658.69    0.6440E-02    0.6437E-02    0.2267E-05
  3661.00    0.7725E-02    0.7723E-02    0.2720E-05
  3663.31    0.9390E-02    0.9387E-02    0.3307E-05
  3665.63    0.1157E-01    0.1156E-01    0.4073E-05
  3667.94    0.1443E-01    0.1442E-01    0.5080E-05
  3670.26    0.1814E-01    0.1813E-01    0.6387E-05
  3672.57    0.2279E-01    0.2278E-01    0.8025E-05
  3674.89    0.2810E-01    0.2809E-01    0.9896E-05
  3677.20    0.3307E-01    0.3305E-01    0.1164E-04
  3679.52    0.3588E-01    0.3587E-01    0.1264E-04
  3681.83    0.3514E-01    0.3512E-01    0.1237E-04
  3684.15    0.3124E-01    0.3123E-01    0.1100E-04
  3686.46    0.2596E-01    0.2595E-01    0.9141E-05
  3688.78    0.2085E-01    0.2084E-01    0.7340E-05
  3691.09    0.1657E-01    0.1657E-01    0.5835E-05
  3693.41    0.1323E-01    0.1322E-01    0.4658E-05
  3695.72    0.1067E-01    0.1067E-01    0.3758E-05
  3698.03    0.8726E-02    0.8723E-02    0.3073E-05
  3700.35    0.7235E-02    0.7232E-02    0.2548E-05
  3702.66    0.6080E-02    0.6078E-02    0.2141E-05
  3704.98    0.5175E-02    0.5174E-02    0.1822E-05
  3707.29    0.4457E-02    0.4456E-02    0.1569E-05
  3709.61    0.3881E-02    0.3879E-02    0.1366E-05
  3711.92    0.3413E-02    0.3412E-02    0.1202E-05
  3714.24    0.3030E-02    0.3029E-02    0.1067E-05
  3716.55    0.2713E-02    0.2712E-02    0.9553E-06
  3718.87    0.2450E-02    0.2450E-02    0.8627E-06
  3721.18    0.2231E-02    0.2230E-02    0.7853E-06
  3723.50    0.2047E-02    0.2046E-02    0.7205E-06
  3725.81    0.1892E-02    0.1892E-02    0.6661E-06
  3728.13    0.1763E-02    0.1762E-02    0.6205E-06
  3730.44    0.1655E-02    0.1655E-02    0.5825E-06
  3732.75    0.1567E-02    0.1566E-02    0.5513E-06
  3735.07    0.1495E-02    0.1494E-02    0.5260E-06
  3737.38    0.1439E-02    0.1438E-02    0.5062E-06
  3739.70    0.1397E-02    0.1397E-02    0.4916E-06
  3742.01    0.1371E-02    0.1370E-02    0.4820E-06
  3744.33    0.1358E-02    0.1358E-02    0.4777E-06
  3746.64    0.1361E-02    0.1361E-02    0.4787E-06
  3748.96    0.1381E-02    0.1381E-02    0.4855E-06
  3751.27    0.1420E-02    0.1419E-02    0.4990E-06
  3753.59    0.1480E-02    0.1480E-02    0.5202E-06
  3755.90    0.1568E-02    0.1567E-02    0.5508E-06
  3758.22    0.1688E-02    0.1687E-02    0.5929E-06
  3760.53    0.1850E-02    0.1849E-02    0.6497E-06
  3762.85    0.2066E-02    0.2066E-02    0.7256E-06
  3765.16    0.2355E-02    0.2354E-02    0.8269E-06
  3767.47    0.2740E-02    0.2739E-02    0.9621E-06
  3769.79    0.3255E-02    0.3254E-02    0.1143E-05
  3772.10    0.3939E-02    0.3937E-02    0.1382E-05
  3774.42    0.4831E-02    0.4829E-02    0.1696E-05
  3776.73    0.5939E-02    0.5937E-02    0.2084E-05
  3779.05    0.7168E-02    0.7165E-02    0.2515E-05
  3781.36    0.8235E-02    0.8232E-02    0.2890E-05
  3783.68    0.8708E-02    0.8705E-02    0.3056E-05
  3785.99    0.8332E-02    0.8329E-02    0.2924E-05
  3788.31    0.7300E-02    0.7297E-02    0.2562E-05
  3790.62    0.6042E-02    0.6039E-02    0.2120E-05
  3792.94    0.4874E-02    0.4872E-02    0.1711E-05
  3795.25    0.3916E-02    0.3915E-02    0.1374E-05
  3797.57    0.3170E-02    0.3169E-02    0.1112E-05
  3799.88    0.2598E-02    0.2597E-02    0.9120E-06
  3802.19    0.2161E-02    0.2160E-02    0.7585E-06
  3804.51    0.1823E-02    0.1822E-02    0.6398E-06
  3806.82    0.1558E-02    0.1558E-02    0.5471E-06
  3809.14    0.1349E-02    0.1348E-02    0.4735E-06
  3811.45    0.1180E-02    0.1180E-02    0.4144E-06
  3813.77    0.1043E-02    0.1043E-02    0.3662E-06
  3816.08    0.9298E-03    0.9295E-03    0.3265E-06
  3818.40    0.8354E-03    0.8351E-03    0.2934E-06
  3820.71    0.7559E-03    0.7556E-03    0.2655E-06
  3823.03    0.6882E-03    0.6880E-03    0.2417E-06
  3825.34    0.6301E-03    0.6299E-03    0.2213E-06
  3827.66    0.5799E-03    0.5797E-03    0.2037E-06
  3829.97    0.5360E-03    0.5358E-03    0.1883E-06
  3832.29    0.4976E-03    0.4974E-03    0.1748E-06
  3834.60    0.4636E-03    0.4634E-03    0.1628E-06
  3836.91    0.4334E-03    0.4332E-03    0.1522E-06
  3839.23    0.4064E-03    0.4062E-03    0.1428E-06
  3841.54    0.3821E-03    0.3820E-03    0.1343E-06
  3843.86    0.3603E-03    0.3602E-03    0.1266E-06
  3846.17    0.3405E-03    0.3404E-03    0.1196E-06
